t_s,altitude_m,relative_speed_mps,vertical_speed_mps,mach,aoa_deg,q_pa,pos_x_m,pos_y_m,pos_z_m,vel_x_mps,vel_y_mps,vel_z_mps,quat_x,quat_y,quat_z,quat_w,omega_x_rps,omega_y_rps,omega_z_rps,pitch_cmd,yaw_cmd,roll_cmd,throttle,engine,sas,rcs,force_x_n,force_y_n,force_z_n,moment_x_nm,moment_y_nm,moment_z_nm,accel_x_mps2,accel_y_mps2,accel_z_mps2,control_mode,surface_pitch,surface_yaw,surface_roll,actuator_saturated,target_quat_x,target_quat_y,target_quat_z,target_quat_w
514.808333,102182.617270,4774.523354,470.085875,14.477124,5.615808,17894.552757,4822008967107.262695,27217094.295888,3302546.107454,-185.224781,55830.531155,-594.314587,-0.014421002,0.040567839,0.705082719,0.707816816,0.002240977,0.000899914,0.006382665,1.000000,0.000000,0.000000,0.000000,1,1,1,-28700.247243,28.715366,12288.479162,-9.163184,371.775180,-37.052622,-0.270780,-3.963277,-3.014617,DIRECT / RAW,1.000000,0.000000,0.000000,0,-0.014421002,0.040567839,0.705082719,0.707816816
514.816667,102186.534613,4774.495257,470.109720,14.477039,5.615731,17889.918588,4822008967105.718750,27217559.550039,3302541.154623,-185.227038,55830.498128,-594.339709,-0.014416045,0.040577532,0.705101101,0.707798049,0.002238499,0.000926952,0.006380184,1.000000,0.000000,0.000000,0.000000,1,1,1,-28692.828855,54.045408,12285.093603,-10.065196,370.182307,-48.471165,-0.273099,-3.962605,-3.014873,DIRECT / RAW,1.000000,0.000000,0.000000,0,-0.014416045,0.040577532,0.705101101,0.707798049
514.825000,102190.452155,4774.467165,470.133564,14.476954,5.615640,17885.285439,4822008967104.174805,27218024.803915,3302536.201583,-185.229314,55830.465106,-594.364833,-0.014411175,0.040587297,0.705119472,0.707779287,0.002235777,0.000953874,0.006376941,1.000000,0.000000,0.000000,0.000000,1,1,1,-28685.410089,79.347119,12281.670506,-10.965318,368.534402,-59.874098,-0.275416,-3.961933,-3.015132,DIRECT / RAW,1.000000,0.000000,0.000000,0,-0.014411175,0.040587297,0.705119472,0.707779287
514.833333,102194.369897,4774.439079,470.157406,14.476868,5.615537,17880.653310,4822008967102.630859,27218490.057515,3302531.248333,-185.231609,55830.432090,-594.389959,-0.014406394,0.040597132,0.705137830,0.707760531,0.002232813,0.000980676,0.006372937,1.000000,0.000000,0.000000,0.000000,1,1,1,-28677.990951,104.617531,12278.210075,-11.863444,366.831763,-71.260090,-0.277730,-3.961262,-3.015393,DIRECT / RAW,1.000000,0.000000,0.000000,0,-0.014406394,0.040597132,0.705137830,0.707760531
514.841667,102198.287838,4774.411000,470.181247,14.476783,5.615421,17876.022200,4822008967101.086914,27218955.310841,3302526.294874,-185.233923,55830.399079,-594.415087,-0.014401702,0.040607035,0.705156172,0.707741784,0.002229607,0.001007355,0.006368174,1.000000,0.000000,0.000000,0.000000,1,1,1,-28670.571447,129.853684,12274.712514,-12.759471,365.074698,-82.627816,-0.280041,-3.960590,-3.015658,DIRECT / RAW,1.000000,0.000000,0.000000,0,-0.014401702,0.040607035,0.705156172,0.707741784
514.850000,102202.205977,4774.382927,470.205085,14.476698,5.615293,17871.392111,4822008967099.542969,27219420.563892,3302521.341206,-185.236257,55830.366075,-594.440218,-0.014397098,0.040617007,0.705174496,0.707723048,0.002226160,0.001033907,0.006362653,1.000000,0.000000,0.000000,0.000000,1,1,1,-28663.151585,155.052624,12271.178036,-13.653295,363.263521,-93.975952,-0.282348,-3.959919,-3.015926,DIRECT / RAW,1.000000,0.000000,0.000000,0,-0.014397098,0.040617007,0.705174496,0.707723048
514.858333,102206.124313,4774.354860,470.228922,14.476613,5.615152,17866.763042,4822008967097.999023,27219885.816667,3302516.387328,-185.238610,55830.333075,-594.465350,-0.014392584,0.040627045,0.705192799,0.707704325,0.002222472,0.001060326,0.006356375,1.000000,0.000000,0.000000,0.000000,1,1,1,-28655.731375,180.211409,12267.606860,-14.544815,361.398554,-105.303182,-0.284652,-3.959248,-3.016197,DIRECT / RAW,1.000000,0.000000,0.000000,0,-0.014392584,0.040627045,0.705192799,0.707704325
514.866667,102210.042849,4774.326799,470.252758,14.476528,5.614998,17862.134993,4822008967096.455078,27220351.069168,3302511.433241,-185.240982,55830.300081,-594.490485,-0.014388160,0.040637149,0.705211081,0.707685618,0.002218544,0.001086611,0.006349342,1.000000,0.000000,0.000000,0.000000,1,1,1,-28648.310823,205.327104,12263.999205,-15.433926,359.480127,-116.608190,-0.286953,-3.958577,-3.016471,DIRECT / RAW,1.000000,0.000000,0.000000,0,-0.014388160,0.040637149,0.705211081,0.707685618
514.875000,102213.961584,4774.298745,470.276591,14.476443,5.614832,17857.507962,4822008967094.911133,27220816.321394,3302506.478944,-185.243373,55830.267093,-594.515623,-0.014383826,0.040647317,0.705229339,0.707666928,0.002214377,0.001112756,0.006341555,1.000000,0.000000,0.000000,0.000000,1,1,1,-28640.889939,230.396782,12260.355300,-16.320527,357.508578,-127.889667,-0.289249,-3.957907,-3.016748,DIRECT / RAW,1.000000,0.000000,0.000000,0,-0.014383826,0.040647317,0.705229339,0.707666928
514.883333,102217.880518,4774.270696,470.300423,14.476358,5.614653,17852.881951,4822008967093.367188,27221281.573345,3302501.524437,-185.245783,55830.234111,-594.540762,-0.014379584,0.040657548,0.705247569,0.707648258,0.002209970,0.001138758,0.006333015,1.000000,0.000000,0.000000,0.000000,1,1,1,-28633.468736,255.417529,12256.675379,-17.204517,355.484252,-139.146309,-0.291541,-3.957236,-3.017028,DIRECT / RAW,1.000000,0.000000,0.000000,0,-0.014379584,0.040657548,0.705247569,0.707648258
514.891667,102221.799649,4774.242654,470.324253,14.476273,5.614462,17848.256960,4822008967091.823242,27221746.825021,3302496.569721,-185.248213,55830.201134,-594.565904,-0.014375432,0.040667841,0.705265771,0.707629610,0.002205326,0.001164613,0.006323724,1.000000,0.000000,0.000000,0.000000,1,1,1,-28626.047229,280.386437,12252.959684,-18.085793,353.407504,-150.376815,-0.293828,-3.956566,-3.017311,DIRECT / RAW,1.000000,0.000000,0.000000,0,-0.014375432,0.040667841,0.705265771,0.707629610
514.900000,102225.718979,4774.214618,470.348081,14.476188,5.614259,17843.632988,4822008967090.279297,27222212.076422,3302491.614796,-185.250662,55830.168162,-594.591048,-0.014371372,0.040678195,0.705283943,0.707610987,0.002200445,0.001190318,0.006313685,1.000000,0.000000,0.000000,0.000000,1,1,1,-28618.625427,305.300610,12249.208455,-18.964256,351.278693,-161.579890,-0.296110,-3.955896,-3.017597,DIRECT / RAW,1.000000,0.000000,0.000000,0,-0.014371372,0.040678195,0.705283943,0.707610987
514.908333,102229.638508,4774.186589,470.371907,14.476103,5.614044,17839.010034,4822008967088.735352,27222677.327549,3302486.659661,-185.253129,55830.135197,-594.616195,-0.014367404,0.040688609,0.705302081,0.707592390,0.002195327,0.001215867,0.006302898,1.000000,0.000000,0.000000,0.000000,1,1,1,-28611.203347,330.157163,12245.421943,-19.839805,349.098188,-172.754244,-0.298387,-3.955226,-3.017886,DIRECT / RAW,1.000000,0.000000,0.000000,0,-0.014367404,0.040688609,0.705302081,0.707592390
514.916667,102233.558235,4774.158565,470.395731,14.476018,5.613816,17834.388100,4822008967087.191406,27223142.578401,3302481.704317,-185.255616,55830.102236,-594.641344,-0.014363529,0.040699081,0.705320184,0.707573821,0.002189973,0.001241258,0.006291366,1.000000,0.000000,0.000000,0.000000,1,1,1,-28603.781005,354.953222,12241.600402,-20.712339,346.866365,-183.898590,-0.300659,-3.954557,-3.018178,DIRECT / RAW,1.000000,0.000000,0.000000,0,-0.014363529,0.040699081,0.705320184,0.707573821
514.925000,102237.478160,4774.130548,470.419554,14.475933,5.613577,17829.767185,4822008967085.647461,27223607.828978,3302476.748762,-185.258121,55830.069282,-594.666496,-0.014359746,0.040709610,0.705338249,0.707555284,0.002184384,0.001266488,0.006279091,1.000000,0.000000,0.000000,0.000000,1,1,1,-28596.358418,379.685923,12237.744095,-21.581761,344.583607,-195.011650,-0.302925,-3.953887,-3.018472,DIRECT / RAW,1.000000,0.000000,0.000000,0,-0.014359746,0.040709610,0.705338249,0.707555284
514.933333,102241.398285,4774.102537,470.443374,14.475848,5.613325,17825.147287,4822008967084.103516,27224073.079281,3302471.792999,-185.260646,55830.036333,-594.691650,-0.014356056,0.040720195,0.705356276,0.707536779,0.002178561,0.001291551,0.006266075,1.000000,0.000000,0.000000,0.000000,1,1,1,-28588.935602,404.352413,12233.853283,-22.447970,342.250303,-206.092149,-0.305185,-3.953218,-3.018770,DIRECT / RAW,1.000000,0.000000,0.000000,0,-0.014356056,0.040720195,0.705356276,0.707536779
514.941667,102245.318608,4774.074532,470.467193,14.475763,5.613061,17820.528409,4822008967082.559570,27224538.329309,3302466.837025,-185.263189,55830.003389,-594.716806,-0.014352460,0.040730835,0.705374260,0.707518310,0.002172505,0.001316445,0.006252320,1.000000,0.000000,0.000000,0.000000,1,1,1,-28581.512577,428.949853,12229.928239,-23.310869,339.866853,-217.138818,-0.307439,-3.952549,-3.019071,DIRECT / RAW,1.000000,0.000000,0.000000,0,-0.014352460,0.040730835,0.705374260,0.707518310
514.950000,102249.239129,4774.046533,470.491009,14.475678,5.612786,17815.910548,4822008967081.015625,27225003.579063,3302461.880842,-185.265751,55829.970451,-594.741965,-0.014348957,0.040741528,0.705392201,0.707499878,0.002166216,0.001341165,0.006237828,1.000000,0.000000,0.000000,0.000000,1,1,1,-28574.089362,453.475414,12225.969237,-24.170359,337.433660,-228.150394,-0.309687,-3.951881,-3.019374,DIRECT / RAW,1.000000,0.000000,0.000000,0,-0.014348957,0.040741528,0.705392201,0.707499878
514.958333,102253.159846,4774.018541,470.514824,14.475593,5.612499,17811.293709,4822008967079.471680,27225468.828542,3302456.924450,-185.268331,55829.937519,-594.767126,-0.014345548,0.040752274,0.705410096,0.707481486,0.002159696,0.001365709,0.006222601,1.000000,0.000000,0.000000,0.000000,1,1,1,-28566.665984,477.926281,12221.976559,-25.026344,334.951137,-239.125620,-0.311928,-3.951212,-3.019681,DIRECT / RAW,1.000000,0.000000,0.000000,0,-0.014345548,0.040752274,0.705410096,0.707481486
514.966667,102257.080764,4773.990555,470.538637,14.475509,5.612200,17806.677885,4822008967077.927734,27225934.077747,3302451.967847,-185.270931,55829.904592,-594.792290,-0.014342233,0.040763071,0.705427944,0.707463136,0.002152946,0.001390072,0.006206643,1.000000,0.000000,0.000000,0.000000,1,1,1,-28559.242455,502.299651,12217.950488,-25.878727,332.419703,-250.063244,-0.314162,-3.950544,-3.019990,DIRECT / RAW,1.000000,0.000000,0.000000,0,-0.014342233,0.040763071,0.705427944,0.707463136
514.975000,102261.001880,4773.962575,470.562447,14.475424,5.611890,17802.063079,4822008967076.383789,27226399.326678,3302447.011035,-185.273549,55829.871671,-594.817457,-0.014339013,0.040773917,0.705445741,0.707444830,0.002145966,0.001414252,0.006189955,1.000000,0.000000,0.000000,0.000000,1,1,1,-28551.818800,526.592734,12213.891313,-26.727411,329.839782,-260.962020,-0.316388,-3.949876,-3.020303,DIRECT / RAW,1.000000,0.000000,0.000000,0,-0.014339013,0.040773917,0.705445741,0.707444830
514.983333,102264.923196,4773.934601,470.586255,14.475339,5.611568,17797.449290,4822008967074.839844,27226864.575334,3302442.054013,-185.276185,55829.838755,-594.842626,-0.014335887,0.040784812,0.705463486,0.707426570,0.002138758,0.001438244,0.006172541,1.000000,0.000000,0.000000,0.000000,1,1,1,-28544.395045,550.802755,12209.799331,-27.572302,327.211808,-271.820711,-0.318607,-3.949208,-3.020618,DIRECT / RAW,1.000000,0.000000,0.000000,0,-0.014335887,0.040784812,0.705463486,0.707426570
514.991667,102268.844708,4773.906634,470.610062,14.475254,5.611235,17792.836521,4822008967073.295898,27227329.823716,3302437.096781,-185.278841,55829.805845,-594.867798,-0.014332857,0.040795754,0.705481177,0.707408358,0.002131322,0.001462044,0.006154402,1.000000,0.000000,0.000000,0.000000,1,1,1,-28536.971215,574.926949,12205.674841,-28.413303,324.536221,-282.638084,-0.320819,-3.948540,-3.020936,DIRECT / RAW,1.000000,0.000000,0.000000,0,-0.014332857,0.040795754,0.705481177,0.707408358
515.000000,102272.766420,4773.878672,470.633866,14.475169,5.610891,17788.224767,4822008967071.751953,27227795.071824,3302432.139340,-185.281514,55829.772941,-594.892972,-0.014329921,0.040806742,0.705498812,0.707390196,0.002123660,0.001485651,0.006135542,1.000000,0.000000,0.000000,0.000000,1,1,1,-28529.547334,598.962569,12201.518147,-29.250320,321.813466,-293.412912,-0.323022,-3.947873,-3.021257,DIRECT / RAW,1.000000,0.000000,0.000000,0,-0.014329921,0.040806742,0.705498812,0.707390196
515.008333,102276.688330,4773.850717,470.657668,14.475085,5.610536,17783.614031,4822008967070.208008,27228260.319658,3302427.181689,-185.284206,55829.740042,-594.918150,-0.014327081,0.040817774,0.705516388,0.707372087,0.002115772,0.001509059,0.006115964,1.000000,0.000000,0.000000,0.000000,1,1,1,-28522.123428,622.906880,12197.329558,-30.083260,319.043997,-304.143977,-0.325217,-3.947206,-3.021581,DIRECT / RAW,1.000000,0.000000,0.000000,0,-0.014327081,0.040817774,0.705516388,0.707372087
515.016667,102280.610438,4773.822768,470.681468,14.475000,5.610169,17779.004313,4822008967068.664062,27228725.567217,3302422.223828,-185.286916,55829.707148,-594.943329,-0.014324337,0.040828850,0.705533904,0.707354033,0.002107661,0.001532267,0.006095670,1.000000,0.000000,0.000000,0.000000,1,1,1,-28514.699527,646.757162,12193.109389,-30.912030,316.228274,-314.830065,-0.327404,-3.946539,-3.021907,DIRECT / RAW,1.000000,0.000000,0.000000,0,-0.014324337,0.040828850,0.705533904,0.707354033
515.025000,102284.532745,4773.794826,470.705266,14.474915,5.609791,17774.395611,4822008967067.120117,27229190.814503,3302417.265757,-185.289644,55829.674261,-594.968512,-0.014321688,0.040839968,0.705551358,0.707336036,0.002099326,0.001555269,0.006074663,1.000000,0.000000,0.000000,0.000000,1,1,1,-28507.275655,670.510712,12188.857956,-31.736536,313.366761,-325.469972,-0.329582,-3.945872,-3.022236,DIRECT / RAW,1.000000,0.000000,0.000000,0,-0.014321688,0.040839968,0.705551358,0.707336036
515.033333,102288.455249,4773.766890,470.729061,14.474830,5.609403,17769.787928,4822008967065.576172,27229656.061514,3302412.307476,-185.292391,55829.641378,-594.993697,-0.014319135,0.040851127,0.705568747,0.707318097,0.002090769,0.001578064,0.006052947,1.000000,0.000000,0.000000,0.000000,1,1,1,-28499.851845,694.164838,12184.575584,-32.556686,310.459931,-336.062498,-0.331751,-3.945206,-3.022568,DIRECT / RAW,1.000000,0.000000,0.000000,0,-0.014319135,0.040851127,0.705568747,0.707318097
515.041667,102292.377953,4773.738960,470.752855,14.474746,5.609004,17765.181260,4822008967064.032227,27230121.308252,3302407.348985,-185.295155,55829.608502,-595.018885,-0.014316678,0.040862325,0.705586070,0.707300220,0.002081992,0.001600647,0.006030524,1.000000,0.000000,0.000000,0.000000,1,1,1,-28492.428124,717.716866,12180.262597,-33.372391,307.508263,-346.606454,-0.333911,-3.944539,-3.022903,DIRECT / RAW,1.000000,0.000000,0.000000,0,-0.014316678,0.040862325,0.705586070,0.707300220
515.050000,102296.300854,4773.711036,470.776646,14.474661,5.608594,17760.575610,4822008967062.488281,27230586.554715,3302402.390285,-185.297938,55829.575630,-595.044076,-0.014314318,0.040873561,0.705603324,0.707282406,0.002072995,0.001623016,0.006007398,1.000000,0.000000,0.000000,0.000000,1,1,1,-28485.004525,741.164140,12175.919330,-34.183557,304.512241,-357.100653,-0.336061,-3.943873,-3.023241,DIRECT / RAW,1.000000,0.000000,0.000000,0,-0.014314318,0.040873561,0.705603324,0.707282406
515.058333,102300.223954,4773.683118,470.800434,14.474576,5.608173,17755.970975,4822008967060.944336,27231051.800905,3302397.431374,-185.300739,55829.542765,-595.069270,-0.014312054,0.040884833,0.705620508,0.707264656,0.002063779,0.001645167,0.005983573,1.000000,0.000000,0.000000,0.000000,1,1,1,-28477.581076,764.504015,12171.546116,-34.990096,301.472358,-367.543921,-0.338202,-3.943208,-3.023581,DIRECT / RAW,1.000000,0.000000,0.000000,0,-0.014312054,0.040884833,0.705620508,0.707264656
515.066667,102304.147251,4773.655207,470.824221,14.474492,5.607742,17751.367358,4822008967059.400391,27231517.046821,3302392.472253,-185.303557,55829.509905,-595.094466,-0.014309886,0.040896141,0.705637619,0.707246975,0.002054347,0.001667097,0.005959051,1.000000,0.000000,0.000000,0.000000,1,1,1,-28470.157814,787.733867,12167.143297,-35.791919,298.389109,-377.935088,-0.340333,-3.942542,-3.023924,DIRECT / RAW,1.000000,0.000000,0.000000,0,-0.014309886,0.040896141,0.705637619,0.707246975
515.075000,102308.070746,4773.627302,470.848005,14.474407,5.607301,17746.764757,4822008967057.856445,27231982.292463,3302387.512923,-185.306393,55829.477050,-595.119666,-0.014307815,0.040907484,0.705654656,0.707229362,0.002044699,0.001688803,0.005933836,1.000000,0.000000,0.000000,0.000000,1,1,1,-28462.734768,810.851085,12162.711216,-36.588935,295.262997,-388.272993,-0.342453,-3.941877,-3.024270,DIRECT / RAW,1.000000,0.000000,0.000000,0,-0.014307815,0.040907484,0.705654656,0.707229362
515.083333,102311.994441,4773.599403,470.871787,14.474323,5.606849,17742.163171,4822008967056.312500,27232447.537831,3302382.553382,-185.309247,55829.444201,-595.144868,-0.014305840,0.040918858,0.705671617,0.707211821,0.002034836,0.001710281,0.005907932,1.000000,0.000000,0.000000,0.000000,1,1,1,-28455.311972,833.853079,12158.250221,-37.381058,292.094532,-398.556482,-0.344564,-3.941212,-3.024618,DIRECT / RAW,1.000000,0.000000,0.000000,0,-0.014305840,0.040918858,0.705671617,0.707211821
515.091667,102315.918333,4773.571510,470.895566,14.474238,5.606388,17737.562603,4822008967054.768555,27232912.782926,3302377.593632,-185.312118,55829.411358,-595.170073,-0.014303962,0.040930265,0.705688498,0.707194353,0.002024760,0.001731529,0.005881342,1.000000,0.000000,0.000000,0.000000,1,1,1,-28447.889463,856.737272,12153.760667,-38.168200,288.884229,-408.784411,-0.346663,-3.940547,-3.024969,DIRECT / RAW,1.000000,0.000000,0.000000,0,-0.014303962,0.040930265,0.705688498,0.707194353
515.100000,102319.842423,4773.543624,470.919343,14.474154,5.605916,17732.963050,4822008967053.224609,27233378.027747,3302372.633671,-185.315007,55829.378520,-595.195281,-0.014302181,0.040941701,0.705705300,0.707176961,0.002014473,0.001752544,0.005854070,1.000000,0.000000,0.000000,0.000000,1,1,1,-28440.467274,879.501107,12149.242908,-38.950274,285.632608,-418.955641,-0.348752,-3.939882,-3.025323,DIRECT / RAW,1.000000,0.000000,0.000000,0,-0.014302181,0.040941701,0.705705300,0.707176961
515.108333,102323.766711,4773.515744,470.943118,14.474069,5.605434,17728.364513,4822008967051.680664,27233843.272294,3302367.673500,-185.317913,55829.345688,-595.220492,-0.014300497,0.040953166,0.705722019,0.707159646,0.002003975,0.001773322,0.005826120,1.000000,0.000000,0.000000,0.000000,1,1,1,-28433.045442,902.142044,12144.697306,-39.727195,282.340194,-429.069043,-0.350829,-3.939218,-3.025679,DIRECT / RAW,1.000000,0.000000,0.000000,0,-0.014300497,0.040953166,0.705722019,0.707159646
515.116667,102327.691198,4773.487870,470.966890,14.473984,5.604943,17723.766991,4822008967050.136719,27234308.516568,3302362.713119,-185.320837,55829.312861,-595.245706,-0.014298909,0.040964658,0.705738654,0.707142411,0.001993267,0.001793861,0.005797495,1.000000,0.000000,0.000000,0.000000,1,1,1,-28425.624000,924.657561,12140.124224,-40.498876,279.007520,-439.123497,-0.352895,-3.938554,-3.026038,DIRECT / RAW,1.000000,0.000000,0.000000,0,-0.014298909,0.040964658,0.705738654,0.707142411
515.125000,102331.615883,4773.460003,470.990660,14.473900,5.604442,17719.170484,4822008967048.592773,27234773.760569,3302357.752528,-185.323778,55829.280040,-595.270923,-0.014297418,0.040976176,0.705755203,0.707125258,0.001982353,0.001814158,0.005768200,1.000000,0.000000,0.000000,0.000000,1,1,1,-28418.202989,947.045155,12135.524030,-41.265234,275.635122,-449.117890,-0.354950,-3.937890,-3.026400,DIRECT / RAW,1.000000,0.000000,0.000000,0,-0.014297418,0.040976176,0.705755203,0.707125258
515.133333,102335.540764,4773.432141,471.014427,14.473816,5.603931,17714.574994,4822008967047.048828,27235239.004295,3302352.791727,-185.326736,55829.247224,-595.296143,-0.014296024,0.040987719,0.705771664,0.707108187,0.001971232,0.001834209,0.005738239,1.000000,0.000000,0.000000,0.000000,1,1,1,-28410.782449,969.302341,12130.897100,-42.026185,272.223544,-459.051118,-0.356993,-3.937226,-3.026764,DIRECT / RAW,1.000000,0.000000,0.000000,0,-0.014296024,0.040987719,0.705771664,0.707108187
515.141667,102339.465845,4773.404286,471.038192,14.473731,5.603411,17709.980519,4822008967045.504883,27235704.247749,3302347.830716,-185.329711,55829.214414,-595.321366,-0.014294727,0.040999285,0.705788035,0.707091203,0.001959906,0.001854013,0.005707615,1.000000,0.000000,0.000000,0.000000,1,1,1,-28403.362412,991.426652,12126.243805,-42.781646,268.773332,-468.922087,-0.359023,-3.936563,-3.027130,DIRECT / RAW,1.000000,0.000000,0.000000,0,-0.014294727,0.040999285,0.705788035,0.707091203
515.150000,102343.391125,4773.376438,471.061954,14.473647,5.602881,17705.387057,4822008967043.959961,27236169.490929,3302342.869494,-185.332702,55829.181609,-595.346592,-0.014293527,0.041010873,0.705804314,0.707074306,0.001948377,0.001873565,0.005676333,1.000000,0.000000,0.000000,0.000000,1,1,1,-28395.942918,1013.415642,12121.564525,-43.531534,265.285040,-478.729708,-0.361042,-3.935900,-3.027499,DIRECT / RAW,1.000000,0.000000,0.000000,0,-0.014293527,0.041010873,0.705804314,0.707074306
515.158333,102347.316603,4773.348595,471.085714,14.473562,5.602343,17700.794611,4822008967042.415039,27236634.733836,3302337.908062,-185.335711,55829.148810,-595.371821,-0.014292423,0.041022481,0.705820499,0.707057498,0.001936647,0.001892864,0.005644398,1.000000,0.000000,0.000000,0.000000,1,1,1,-28388.524010,1035.266883,12116.859644,-44.275768,261.759225,-488.472906,-0.363048,-3.935237,-3.027871,DIRECT / RAW,1.000000,0.000000,0.000000,0,-0.014292423,0.041022481,0.705820499,0.707057498
515.166667,102351.242278,4773.320759,471.109471,14.473478,5.601795,17696.203179,4822008967040.870117,27237099.976469,3302332.946420,-185.338736,55829.116016,-595.397054,-0.014291417,0.041034108,0.705836589,0.707040782,0.001924716,0.001911907,0.005611812,1.000000,0.000000,0.000000,0.000000,1,1,1,-28381.105726,1056.977967,12112.129549,-45.014268,258.196451,-498.150611,-0.365041,-3.934574,-3.028245,DIRECT / RAW,1.000000,0.000000,0.000000,0,-0.014291417,0.041034108,0.705836589,0.707040782
515.175000,102355.168151,4773.292929,471.133226,14.473393,5.601238,17691.612763,4822008967039.325195,27237565.218829,3302327.984568,-185.341778,55829.083228,-595.422289,-0.014290507,0.041045753,0.705852581,0.707024159,0.001912586,0.001930690,0.005578582,1.000000,0.000000,0.000000,0.000000,1,1,1,-28373.688106,1078.546506,12107.374629,-45.746952,254.597285,-507.761763,-0.367021,-3.933912,-3.028621,DIRECT / RAW,1.000000,0.000000,0.000000,0,-0.014290507,0.041045753,0.705852581,0.707024159
515.183333,102359.094223,4773.265105,471.156978,14.473309,5.600673,17687.023360,4822008967037.780273,27238030.460916,3302323.022505,-185.344837,55829.050445,-595.447528,-0.014289693,0.041057414,0.705868474,0.707007631,0.001900260,0.001949212,0.005544710,1.000000,0.000000,0.000000,0.000000,1,1,1,-28366.271193,1099.970131,12102.595278,-46.473743,250.962301,-517.305314,-0.368989,-3.933250,-3.029000,DIRECT / RAW,1.000000,0.000000,0.000000,0,-0.014289693,0.041057414,0.705868474,0.707007631
515.191667,102363.020492,4773.237288,471.180727,14.473225,5.600098,17682.434973,4822008967036.235352,27238495.702730,3302318.060232,-185.347912,55829.017668,-595.472769,-0.014288976,0.041069090,0.705884266,0.706991200,0.001887738,0.001967469,0.005510202,1.000000,0.000000,0.000000,0.000000,1,1,1,-28358.855028,1121.246494,12097.791891,-47.194562,247.292075,-526.780220,-0.370942,-3.932588,-3.029381,DIRECT / RAW,1.000000,0.000000,0.000000,0,-0.014288976,0.041069090,0.705884266,0.706991200
515.200000,102366.946959,4773.209477,471.204474,14.473140,5.599516,17677.847599,4822008967034.690430,27238960.944271,3302313.097749,-185.351003,55828.984897,-595.498014,-0.014288355,0.041080780,0.705899955,0.706974869,0.001875022,0.001985460,0.005475063,1.000000,0.000000,0.000000,0.000000,1,1,1,-28351.439651,1142.373269,12092.964870,-47.909331,243.587190,-536.185452,-0.372883,-3.931926,-3.029765,DIRECT / RAW,1.000000,0.000000,0.000000,0,-0.014288355,0.041080780,0.705899955,0.706974869
515.208333,102370.873624,4773.181672,471.228218,14.473056,5.598924,17673.261240,4822008967033.145508,27239426.185539,3302308.135055,-185.354110,55828.952131,-595.523262,-0.014287831,0.041092481,0.705915540,0.706958638,0.001862114,0.002003181,0.005439296,1.000000,0.000000,0.000000,0.000000,1,1,1,-28344.025107,1163.348150,12088.114617,-48.617973,239.848232,-545.519988,-0.374809,-3.931265,-3.030151,DIRECT / RAW,1.000000,0.000000,0.000000,0,-0.014287831,0.041092481,0.705915540,0.706958638
515.216667,102374.800487,4773.153873,471.251960,14.472972,5.598325,17668.675895,4822008967031.600586,27239891.426534,3302303.172150,-185.357234,55828.919370,-595.548513,-0.014287402,0.041104194,0.705931018,0.706942511,0.001849015,0.002020631,0.005402908,1.000000,0.000000,0.000000,0.000000,1,1,1,-28336.611436,1184.168850,12083.241538,-49.320412,236.075792,-554.782814,-0.376722,-3.930604,-3.030539,DIRECT / RAW,1.000000,0.000000,0.000000,0,-0.014287402,0.041104194,0.705931018,0.706942511
515.225000,102378.727547,4773.126081,471.275698,14.472888,5.597717,17664.091563,4822008967030.055664,27240356.667255,3302298.209036,-185.360373,55828.886615,-595.573768,-0.014287070,0.041115915,0.705946388,0.706926487,0.001835728,0.002037805,0.005365901,1.000000,0.000000,0.000000,0.000000,1,1,1,-28329.198684,1204.833106,12078.346042,-50.016574,232.270466,-563.972928,-0.378620,-3.929943,-3.030930,DIRECT / RAW,1.000000,0.000000,0.000000,0,-0.014287070,0.041115915,0.705946388,0.706926487
515.233333,102382.654804,4773.098295,471.299434,14.472803,5.597101,17659.508247,4822008967028.510742,27240821.907704,3302293.245711,-185.363528,55828.853866,-595.599026,-0.014286833,0.041127645,0.705961648,0.706910571,0.001822253,0.002054704,0.005328282,1.000000,0.000000,0.000000,0.000000,1,1,1,-28321.786894,1225.338675,12073.428542,-50.706384,228.432853,-573.089338,-0.380504,-3.929283,-3.031323,DIRECT / RAW,1.000000,0.000000,0.000000,0,-0.014286833,0.041127645,0.705961648,0.706910571
515.241667,102386.582261,4773.070515,471.323168,14.472719,5.596478,17654.925942,4822008967026.965820,27241287.147880,3302288.282175,-185.366699,55828.821122,-595.624287,-0.014286693,0.041139381,0.705976796,0.706894763,0.001808593,0.002071323,0.005290055,1.000000,0.000000,0.000000,0.000000,1,1,1,-28314.376108,1245.683337,12068.489452,-51.389768,224.563557,-582.131061,-0.382374,-3.928622,-3.031718,DIRECT / RAW,1.000000,0.000000,0.000000,0,-0.014286693,0.041139381,0.705976796,0.706894763
515.250000,102390.509915,4773.042741,471.346898,14.472635,5.595846,17650.344652,4822008967025.420898,27241752.387783,3302283.318429,-185.369886,55828.788383,-595.649551,-0.014286647,0.041151122,0.705991831,0.706879065,0.001794749,0.002087661,0.005251225,1.000000,0.000000,0.000000,0.000000,1,1,1,-28306.966371,1265.864893,12063.529190,-52.066654,220.663185,-591.097125,-0.384228,-3.927962,-3.032115,DIRECT / RAW,1.000000,0.000000,0.000000,0,-0.014286647,0.041151122,0.705991831,0.706879065
515.258333,102394.437765,4773.014974,471.370626,14.472551,5.595207,17645.764375,4822008967023.875977,27242217.627414,3302278.354472,-185.373088,55828.755650,-595.674819,-0.014286697,0.041162866,0.706006750,0.706863478,0.001780723,0.002103715,0.005211798,1.000000,0.000000,0.000000,0.000000,1,1,1,-28299.557729,1285.881167,12058.548178,-52.736971,216.732349,-599.986565,-0.386068,-3.927302,-3.032515,DIRECT / RAW,1.000000,0.000000,0.000000,0,-0.014286697,0.041162866,0.706006750,0.706863478
515.266667,102398.365816,4772.987213,471.394351,14.472466,5.594560,17641.185110,4822008967022.331055,27242682.866772,3302273.390304,-185.376305,55828.722922,-595.700090,-0.014286842,0.041174613,0.706021553,0.706848006,0.001766517,0.002119484,0.005171778,1.000000,0.000000,0.000000,0.000000,1,1,1,-28292.150222,1305.730004,12053.546837,-53.400647,212.771664,-608.798431,-0.387892,-3.926643,-3.032916,DIRECT / RAW,1.000000,0.000000,0.000000,0,-0.014286842,0.041174613,0.706021553,0.706848006
515.275000,102402.294063,4772.959458,471.418074,14.472382,5.593907,17636.606859,4822008967020.786133,27243148.105857,3302268.425926,-185.379537,55828.690200,-595.725364,-0.014287082,0.041186361,0.706036238,0.706832649,0.001752132,0.002134964,0.005131170,1.000000,0.000000,0.000000,0.000000,1,1,1,-28284.743900,1325.409273,12048.525594,-54.057611,208.781750,-617.531781,-0.389701,-3.925983,-3.033320,DIRECT / RAW,1.000000,0.000000,0.000000,0,-0.014287082,0.041186361,0.706036238,0.706832649
515.283333,102406.222507,4772.931710,471.441793,14.472298,5.593245,17632.029621,4822008967019.241211,27243613.344669,3302263.461338,-185.382785,55828.657484,-595.750642,-0.014287416,0.041198108,0.706050802,0.706817410,0.001737571,0.002150154,0.005089981,1.000000,0.000000,0.000000,0.000000,1,1,1,-28277.338806,1344.916865,12043.484878,-54.707797,204.763230,-626.185682,-0.391494,-3.925324,-3.033726,DIRECT / RAW,1.000000,0.000000,0.000000,0,-0.014287416,0.041198108,0.706050802,0.706817410
515.291667,102410.151149,4772.903968,471.465510,14.472214,5.592577,17627.453396,4822008967017.696289,27244078.583209,3302258.496538,-185.386047,55828.624773,-595.775923,-0.014287845,0.041209853,0.706065245,0.706802289,0.001722836,0.002165053,0.005048214,1.000000,0.000000,0.000000,0.000000,1,1,1,-28269.934987,1364.250696,12038.425121,-55.351133,200.716731,-634.759214,-0.393272,-3.924666,-3.034135,DIRECT / RAW,1.000000,0.000000,0.000000,0,-0.014287845,0.041209853,0.706065245,0.706802289
515.300000,102414.079989,4772.876232,471.489223,14.472130,5.591902,17622.878184,4822008967016.151367,27244543.821476,3302253.531528,-185.389324,55828.592067,-595.801207,-0.014288368,0.041221595,0.706079564,0.706787289,0.001707927,0.002179657,0.005005876,1.000000,0.000000,0.000000,0.000000,1,1,1,-28262.532486,1383.408702,12033.346755,-55.987555,196.642880,-643.251466,-0.395034,-3.924007,-3.034545,DIRECT / RAW,1.000000,0.000000,0.000000,0,-0.014288368,0.041221595,0.706079564,0.706787289
515.308333,102418.009026,4772.848502,471.512934,14.472046,5.591220,17618.303983,4822008967014.606445,27245009.059471,3302248.566307,-185.392616,55828.559367,-595.826495,-0.014288985,0.041233332,0.706093758,0.706772412,0.001692847,0.002193964,0.004962971,1.000000,0.000000,0.000000,0.000000,1,1,1,-28255.131350,1402.388845,12028.250215,-56.616994,192.542313,-651.661539,-0.396779,-3.923349,-3.034957,DIRECT / RAW,1.000000,0.000000,0.000000,0,-0.014288985,0.041233332,0.706093758,0.706772412
515.316667,102421.938261,4772.820779,471.536642,14.471962,5.590531,17613.730795,4822008967013.061523,27245474.297193,3302243.600876,-185.395923,55828.526673,-595.851786,-0.014289696,0.041245062,0.706107825,0.706757659,0.001677598,0.002207974,0.004919507,1.000000,0.000000,0.000000,0.000000,1,1,1,-28247.731625,1421.189110,12023.135939,-57.239386,188.415666,-659.988544,-0.398508,-3.922691,-3.035371,DIRECT / RAW,1.000000,0.000000,0.000000,0,-0.014289696,0.041245062,0.706107825,0.706757659
515.325000,102425.867693,4772.793062,471.560347,14.471878,5.589836,17609.158620,4822008967011.516602,27245939.534643,3302238.635233,-185.399244,55828.493984,-595.877081,-0.014290499,0.041256785,0.706121765,0.706743032,0.001662182,0.002221683,0.004875487,1.000000,0.000000,0.000000,0.000000,1,1,1,-28240.333357,1439.807506,12018.004370,-57.854665,184.263577,-668.231603,-0.400221,-3.922033,-3.035788,DIRECT / RAW,1.000000,0.000000,0.000000,0,-0.014290499,0.041256785,0.706121765,0.706743032
515.333333,102429.797323,4772.765351,471.584049,14.471794,5.589134,17604.587457,4822008967009.971680,27246404.771820,3302233.669380,-185.402579,55828.461300,-595.902379,-0.014291396,0.041268499,0.706135574,0.706728532,0.001646601,0.002235091,0.004830917,1.000000,0.000000,0.000000,0.000000,1,1,1,-28232.936590,1458.242065,12012.855948,-58.462769,180.086690,-676.389848,-0.401917,-3.921376,-3.036206,DIRECT / RAW,1.000000,0.000000,0.000000,0,-0.014291396,0.041268499,0.706135574,0.706728532
515.341667,102433.727151,4772.737647,471.607749,14.471710,5.588427,17600.017305,4822008967008.426758,27246870.008725,3302228.703316,-185.405928,55828.428622,-595.927681,-0.014292385,0.041280203,0.706149252,0.706714161,0.001630856,0.002248195,0.004785804,1.000000,0.000000,0.000000,0.000000,1,1,1,-28225.541372,1476.490845,12007.691117,-59.063633,175.885650,-684.462424,-0.403596,-3.920718,-3.036626,DIRECT / RAW,1.000000,0.000000,0.000000,0,-0.014292385,0.041280203,0.706149252,0.706714161
515.350000,102437.657175,4772.709948,471.631445,14.471626,5.587713,17595.448166,4822008967006.881836,27247335.245358,3302223.737041,-185.409292,55828.395949,-595.952986,-0.014293467,0.041291895,0.706162798,0.706699922,0.001614950,0.002260993,0.004740152,1.000000,0.000000,0.000000,0.000000,1,1,1,-28218.147750,1494.551928,12002.510326,-59.657197,171.661106,-692.448485,-0.405258,-3.920062,-3.037048,DIRECT / RAW,1.000000,0.000000,0.000000,0,-0.014293467,0.041291895,0.706162798,0.706699922
515.358333,102441.587397,4772.682257,471.655138,14.471542,5.586993,17590.880038,4822008967005.336914,27247800.481719,3302218.770556,-185.412669,55828.363282,-595.978295,-0.014294641,0.041303573,0.706176209,0.706685814,0.001598884,0.002273485,0.004693969,1.000000,0.000000,0.000000,0.000000,1,1,1,-28210.755766,1512.423419,11997.314020,-60.243399,167.413708,-700.347199,-0.406902,-3.919405,-3.037472,DIRECT / RAW,1.000000,0.000000,0.000000,0,-0.014294641,0.041303573,0.706176209,0.706685814
515.366667,102445.517816,4772.654571,471.678829,14.471458,5.586267,17586.312922,4822008967003.791992,27248265.717808,3302213.803859,-185.416060,55828.330620,-596.003607,-0.014295906,0.041315237,0.706189484,0.706671841,0.001582661,0.002285667,0.004647259,1.000000,0.000000,0.000000,0.000000,1,1,1,-28203.365471,1530.103449,11992.102651,-60.822178,163.144110,-708.157742,-0.408530,-3.918748,-3.037898,DIRECT / RAW,1.000000,0.000000,0.000000,0,-0.014295906,0.041315237,0.706189484,0.706671841
515.375000,102449.448433,4772.626891,471.702516,14.471374,5.585536,17581.746816,4822008967002.247070,27248730.953624,3302208.836951,-185.419464,55828.297964,-596.028923,-0.014297263,0.041326885,0.706202622,0.706658003,0.001566282,0.002297540,0.004600028,1.000000,0.000000,0.000000,0.000000,1,1,1,-28195.976906,1547.590175,11986.876671,-61.393477,158.852968,-715.879305,-0.410139,-3.918092,-3.038325,DIRECT / RAW,1.000000,0.000000,0.000000,0,-0.014297263,0.041326885,0.706202622,0.706658003
515.383333,102453.379247,4772.599218,471.726200,14.471290,5.584799,17577.181723,4822008967000.702148,27249196.189168,3302203.869833,-185.422882,55828.265313,-596.054242,-0.014298710,0.041338515,0.706215621,0.706644302,0.001549750,0.002309100,0.004552282,1.000000,0.000000,0.000000,0.000000,1,1,1,-28188.590121,1564.881778,11981.636533,-61.957237,154.540942,-723.511086,-0.411731,-3.917437,-3.038755,DIRECT / RAW,1.000000,0.000000,0.000000,0,-0.014298710,0.041338515,0.706215621,0.706644302
515.391667,102457.310259,4772.571551,471.749881,14.471206,5.584057,17572.617640,4822008966999.157227,27249661.424440,3302198.902503,-185.426313,55828.232668,-596.079565,-0.014300249,0.041350126,0.706228480,0.706630740,0.001533067,0.002320346,0.004504028,1.000000,0.000000,0.000000,0.000000,1,1,1,-28181.205159,1581.976464,11976.382692,-62.513400,150.208691,-731.052298,-0.413305,-3.916781,-3.039186,DIRECT / RAW,1.000000,0.000000,0.000000,0,-0.014300249,0.041350126,0.706228480,0.706630740
515.400000,102461.241468,4772.543891,471.773560,14.471122,5.583310,17568.054568,4822008966997.612305,27250126.659441,3302193.934962,-185.429757,55828.200028,-596.104892,-0.014301877,0.041361718,0.706241198,0.706617319,0.001516234,0.002331278,0.004455272,1.000000,0.000000,0.000000,0.000000,1,1,1,-28173.822066,1598.872465,11971.115604,-63.061911,145.856879,-738.502165,-0.414861,-3.916126,-3.039619,DIRECT / RAW,1.000000,0.000000,0.000000,0,-0.014301877,0.041361718,0.706241198,0.706617319
515.408333,102465.172874,4772.516237,471.797235,14.471038,5.582558,17563.492508,4822008966996.067383,27250591.894169,3302188.967210,-185.433214,55828.167394,-596.130222,-0.014303595,0.041373287,0.706253772,0.706604039,0.001499254,0.002341893,0.004406018,1.000000,0.000000,0.000000,0.000000,1,1,1,-28166.440890,1615.568039,11965.835730,-63.602714,141.486171,-745.859922,-0.416399,-3.915471,-3.040053,DIRECT / RAW,1.000000,0.000000,0.000000,0,-0.014303595,0.041373287,0.706253772,0.706604039
515.416667,102469.104477,4772.488589,471.820907,14.470955,5.581801,17558.931458,4822008966994.522461,27251057.128625,3302183.999247,-185.436684,55828.134765,-596.155556,-0.014305402,0.041384833,0.706266202,0.706590902,0.001482129,0.002352191,0.004356275,1.000000,0.000000,0.000000,0.000000,1,1,1,-28159.061674,1632.061469,11960.543527,-64.135755,137.097235,-753.124816,-0.417919,-3.914816,-3.040490,DIRECT / RAW,1.000000,0.000000,0.000000,0,-0.014305402,0.041384833,0.706266202,0.706590902
515.425000,102473.036278,4772.460947,471.844576,14.470871,5.581039,17554.371418,4822008966992.977539,27251522.362810,3302179.031073,-185.440167,55828.102141,-596.180893,-0.014307298,0.041396355,0.706278486,0.706577910,0.001464860,0.002362170,0.004306047,1.000000,0.000000,0.000000,0.000000,1,1,1,-28151.684463,1648.351065,11955.239457,-64.660980,132.690739,-760.296105,-0.419419,-3.914161,-3.040928,DIRECT / RAW,1.000000,0.000000,0.000000,0,-0.014307298,0.041396355,0.706278486,0.706577910
515.433333,102476.968276,4772.433311,471.868242,14.470787,5.580273,17549.812388,4822008966991.432617,27251987.596723,3302174.062688,-185.443662,55828.069523,-596.206234,-0.014309283,0.041407851,0.706290623,0.706565065,0.001447451,0.002371828,0.004255341,1.000000,0.000000,0.000000,0.000000,1,1,1,-28144.309302,1664.435162,11949.923981,-65.178337,128.267355,-767.373061,-0.420902,-3.913507,-3.041367,DIRECT / RAW,1.000000,0.000000,0.000000,0,-0.014309283,0.041407851,0.706290623,0.706565065
515.441667,102480.900471,4772.405682,471.891905,14.470703,5.579502,17545.254369,4822008966989.887695,27252452.830363,3302169.094091,-185.447170,55828.036911,-596.231579,-0.014311355,0.041419320,0.706302611,0.706552367,0.001429903,0.002381165,0.004204164,1.000000,0.000000,0.000000,0.000000,1,1,1,-28136.936238,1680.312123,11944.597565,-65.687774,123.827754,-774.354965,-0.422365,-3.912853,-3.041808,DIRECT / RAW,1.000000,0.000000,0.000000,0,-0.014311355,0.041419320,0.706302611,0.706552367
515.450000,102484.832864,4772.378059,471.915564,14.470619,5.578727,17540.697360,4822008966988.341797,27252918.063733,3302164.125284,-185.450689,55828.004304,-596.256927,-0.014313515,0.041430761,0.706314449,0.706539818,0.001412218,0.002390178,0.004152521,1.000000,0.000000,0.000000,0.000000,1,1,1,-28129.565313,1695.980335,11939.260670,-66.189242,119.372612,-781.241112,-0.423809,-3.912200,-3.042251,DIRECT / RAW,1.000000,0.000000,0.000000,0,-0.014313515,0.041430761,0.706314449,0.706539818
515.458333,102488.765454,4772.350443,471.939221,14.470536,5.577948,17536.141360,4822008966986.795898,27253383.296830,3302159.156265,-185.454221,55827.971702,-596.282280,-0.014315762,0.041442171,0.706326137,0.706527419,0.001394398,0.002398869,0.004100419,1.000000,0.000000,0.000000,0.000000,1,1,1,-28122.196571,1711.438213,11933.913764,-66.682691,114.902603,-788.030810,-0.425234,-3.911546,-3.042695,DIRECT / RAW,1.000000,0.000000,0.000000,0,-0.014315762,0.041442171,0.706326137,0.706527419
515.466667,102492.698242,4772.322832,471.962874,14.470452,5.577165,17531.586370,4822008966985.250000,27253848.529656,3302154.187034,-185.457765,55827.939106,-596.307635,-0.014318095,0.041453550,0.706337672,0.706515172,0.001376446,0.002407234,0.004047865,1.000000,0.000000,0.000000,0.000000,1,1,1,-28114.830056,1726.684200,11928.557311,-67.168072,110.418405,-794.723376,-0.426640,-3.910893,-3.043141,DIRECT / RAW,1.000000,0.000000,0.000000,0,-0.014318095,0.041453550,0.706337672,0.706515172
515.475000,102496.631226,4772.295228,471.986525,14.470368,5.576378,17527.032389,4822008966983.704102,27254313.762210,3302149.217593,-185.461320,55827.906515,-596.332995,-0.014320515,0.041464896,0.706349053,0.706503079,0.001358364,0.002415273,0.003994865,1.000000,0.000000,0.000000,0.000000,1,1,1,-28107.465814,1741.716763,11923.191781,-67.645338,105.920696,-801.318142,-0.428027,-3.910240,-3.043588,DIRECT / RAW,1.000000,0.000000,0.000000,0,-0.014320515,0.041464896,0.706349053,0.706503079
515.483333,102500.564407,4772.267630,472.010172,14.470285,5.575587,17522.479419,4822008966982.158203,27254778.994493,3302144.247940,-185.464887,55827.873930,-596.358358,-0.014323020,0.041476208,0.706360279,0.706491140,0.001340154,0.002422986,0.003941425,1.000000,0.000000,0.000000,0.000000,1,1,1,-28100.103886,1756.534398,11917.817641,-68.114443,101.410155,-807.814451,-0.429393,-3.909588,-3.044036,DIRECT / RAW,1.000000,0.000000,0.000000,0,-0.014323020,0.041476208,0.706360279,0.706491140
515.491667,102504.497786,4772.240039,472.033816,14.470201,5.574793,17517.927457,4822008966980.612305,27255244.226504,3302139.278075,-185.468465,55827.841350,-596.383725,-0.014325610,0.041487485,0.706371350,0.706479357,0.001321818,0.002430370,0.003887553,1.000000,0.000000,0.000000,0.000000,1,1,1,-28092.744315,1771.135627,11912.435359,-68.575341,96.887463,-814.211659,-0.430741,-3.908935,-3.044486,DIRECT / RAW,1.000000,0.000000,0.000000,0,-0.014325610,0.041487485,0.706371350,0.706479357
515.500000,102508.431361,4772.212453,472.057456,14.470117,5.573996,17513.376505,4822008966979.066406,27255709.458244,3302134.308000,-185.472055,55827.808775,-596.409096,-0.014328285,0.041498725,0.706382262,0.706467731,0.001303359,0.002437426,0.003833254,1.000000,0.000000,0.000000,0.000000,1,1,1,-28085.387145,1785.519001,11907.045407,-69.027987,92.353302,-820.509133,-0.432068,-3.908283,-3.044938,DIRECT / RAW,1.000000,0.000000,0.000000,0,-0.014328285,0.041498725,0.706382262,0.706467731
515.508333,102512.365132,4772.184874,472.081094,14.470034,5.573195,17508.826563,4822008966977.520508,27256174.689713,3302129.337712,-185.475655,55827.776206,-596.434470,-0.014331043,0.041509926,0.706393017,0.706456264,0.001284777,0.002444152,0.003778536,1.000000,0.000000,0.000000,0.000000,1,1,1,-28078.032418,1799.683096,11901.648254,-69.472339,87.808354,-826.706254,-0.433375,-3.907632,-3.045390,DIRECT / RAW,1.000000,0.000000,0.000000,0,-0.014331043,0.041509926,0.706393017,0.706456264
515.516667,102516.299101,4772.157301,472.104728,14.469950,5.572392,17504.277629,4822008966975.974609,27256639.920910,3302124.367214,-185.479267,55827.743643,-596.459848,-0.014333885,0.041521088,0.706403612,0.706444957,0.001266077,0.002450548,0.003723404,1.000000,0.000000,0.000000,0.000000,1,1,1,-28070.680174,1813.626518,11896.244369,-69.908354,83.253301,-832.802414,-0.434663,-3.906980,-3.045844,DIRECT / RAW,1.000000,0.000000,0.000000,0,-0.014333885,0.041521088,0.706403612,0.706444957
515.525000,102520.233268,4772.129735,472.128359,14.469866,5.571586,17499.729703,4822008966974.428711,27257105.151835,3302119.396503,-185.482889,55827.711085,-596.485230,-0.014336810,0.041532210,0.706414045,0.706433810,0.001247260,0.002456613,0.003667867,1.000000,0.000000,0.000000,0.000000,1,1,1,-28063.330453,1827.347897,11890.834224,-70.335990,78.688827,-838.797018,-0.435930,-3.906329,-3.046299,DIRECT / RAW,1.000000,0.000000,0.000000,0,-0.014336810,0.041532210,0.706414045,0.706433810
515.533333,102524.167630,4772.102175,472.151987,14.469783,5.570777,17495.182788,4822008966972.882812,27257570.382490,3302114.425582,-185.486522,55827.678532,-596.510616,-0.014339817,0.041543289,0.706424317,0.706422826,0.001228328,0.002462346,0.003611930,1.000000,0.000000,0.000000,0.000000,1,1,1,-28055.983302,1840.845896,11885.418292,-70.755208,74.115618,-844.689486,-0.437176,-3.905678,-3.046756,DIRECT / RAW,1.000000,0.000000,0.000000,0,-0.014339817,0.041543289,0.706424317,0.706422826
515.541667,102528.102191,4772.074621,472.175611,14.469699,5.569965,17490.636879,4822008966971.336914,27258035.612873,3302109.454448,-185.490165,55827.645985,-596.536006,-0.014342906,0.041554324,0.706434426,0.706412005,0.001209284,0.002467747,0.003555600,1.000000,0.000000,0.000000,0.000000,1,1,1,-28048.638752,1854.119200,11879.997042,-71.165968,69.534356,-850.479246,-0.438403,-3.905027,-3.047213,DIRECT / RAW,1.000000,0.000000,0.000000,0,-0.014342906,0.041554324,0.706434426,0.706412005
515.550000,102532.036947,4772.047073,472.199233,14.469616,5.569151,17486.091979,4822008966969.791016,27258500.842985,3302104.483103,-185.493818,55827.613443,-596.561399,-0.014346076,0.041565315,0.706444371,0.706401349,0.001190130,0.002472815,0.003498885,1.000000,0.000000,0.000000,0.000000,1,1,1,-28041.296850,1867.166526,11874.570948,-71.568231,64.945727,-856.165743,-0.439608,-3.904377,-3.047672,DIRECT / RAW,1.000000,0.000000,0.000000,0,-0.014346076,0.041565315,0.706444371,0.706401349
515.558333,102535.971901,4772.019531,472.222851,14.469532,5.568335,17481.548088,4822008966968.245117,27258966.072826,3302099.511546,-185.497482,55827.580906,-596.586797,-0.014349326,0.041576259,0.706454150,0.706390859,0.001170868,0.002477550,0.003441791,1.000000,0.000000,0.000000,0.000000,1,1,1,-28033.957632,1879.986619,11869.140482,-71.961961,60.350417,-861.748431,-0.440793,-3.903727,-3.048132,DIRECT / RAW,1.000000,0.000000,0.000000,0,-0.014349326,0.041576259,0.706454150,0.706390859
515.566667,102539.907051,4771.991996,472.246465,14.469449,5.567517,17477.005204,4822008966966.699219,27259431.302396,3302094.539778,-185.501155,55827.548375,-596.612198,-0.014352656,0.041587156,0.706463763,0.706380536,0.001151501,0.002481951,0.003384325,1.000000,0.000000,0.000000,0.000000,1,1,1,-28026.621138,1892.578248,11863.706115,-72.347121,55.749111,-867.226780,-0.441957,-3.903077,-3.048593,DIRECT / RAW,1.000000,0.000000,0.000000,0,-0.014352656,0.041587156,0.706463763,0.706380536
515.575000,102543.842398,4771.964467,472.270077,14.469365,5.566697,17472.463329,4822008966965.153320,27259896.531694,3302089.567798,-185.504838,55827.515849,-596.637603,-0.014356066,0.041598004,0.706473209,0.706370381,0.001132030,0.002486017,0.003326494,1.000000,0.000000,0.000000,0.000000,1,1,1,-28019.287405,1904.940216,11858.268321,-72.723677,51.142493,-872.600272,-0.443100,-3.902428,-3.049055,DIRECT / RAW,1.000000,0.000000,0.000000,0,-0.014356066,0.041598004,0.706473209,0.706370381
515.583333,102547.777941,4771.936944,472.293685,14.469282,5.565875,17467.922461,4822008966963.607422,27260361.760722,3302084.595606,-185.508530,55827.483329,-596.663012,-0.014359554,0.041608802,0.706482486,0.706360395,0.001112458,0.002489749,0.003268304,1.000000,0.000000,0.000000,0.000000,1,1,1,-28011.956471,1917.071349,11852.827570,-73.091593,46.531250,-877.868399,-0.444223,-3.901779,-3.049518,DIRECT / RAW,1.000000,0.000000,0.000000,0,-0.014359554,0.041608802,0.706482486,0.706360395
515.591667,102551.713682,4771.909428,472.317290,14.469198,5.565052,17463.382601,4822008966962.061523,27260826.989479,3302079.623203,-185.512232,55827.450814,-596.688424,-0.014363120,0.041619549,0.706491594,0.706350579,0.001092788,0.002493145,0.003209764,1.000000,0.000000,0.000000,0.000000,1,1,1,-28004.628372,1928.970506,11847.384335,-73.450837,41.916066,-883.030670,-0.445324,-3.901130,-3.049982,DIRECT / RAW,1.000000,0.000000,0.000000,0,-0.014363120,0.041619549,0.706491594,0.706350579
515.600000,102555.649619,4771.881918,472.340891,14.469115,5.564227,17458.843749,4822008966960.515625,27261292.217965,3302074.650588,-185.515943,55827.418305,-596.713841,-0.014366764,0.041630243,0.706500532,0.706340935,0.001073022,0.002496206,0.003150880,1.000000,0.000000,0.000000,0.000000,1,1,1,-27997.303145,1940.636571,11841.939088,-73.801377,37.297625,-888.086604,-0.446403,-3.900481,-3.050447,DIRECT / RAW,1.000000,0.000000,0.000000,0,-0.014366764,0.041630243,0.706500532,0.706340935
515.608333,102559.585752,4771.854414,472.364489,14.469032,5.563401,17454.305904,4822008966958.969727,27261757.446180,3302069.677760,-185.519663,55827.385801,-596.739261,-0.014370484,0.041640883,0.706509299,0.706331464,0.001053161,0.002498932,0.003091660,1.000000,0.000000,0.000000,0.000000,1,1,1,-27989.980826,1952.068459,11836.492300,-74.143182,32.676614,-893.035734,-0.447462,-3.899833,-3.050913,DIRECT / RAW,1.000000,0.000000,0.000000,0,-0.014370484,0.041640883,0.706509299,0.706331464
515.616667,102563.522082,4771.826916,472.388084,14.468948,5.562574,17449.769066,4822008966957.423828,27262222.674124,3302064.704721,-185.523392,55827.353302,-596.764685,-0.014374281,0.041651467,0.706517893,0.706322166,0.001033210,0.002501322,0.003032109,1.000000,0.000000,0.000000,0.000000,1,1,1,-27982.661449,1963.265111,11831.044443,-74.476222,28.053714,-897.877607,-0.448499,-3.899184,-3.051380,DIRECT / RAW,1.000000,0.000000,0.000000,0,-0.014374281,0.041651467,0.706517893,0.706322166
515.625000,102567.458609,4771.799424,472.411676,14.468865,5.561747,17445.233235,4822008966955.877930,27262687.901797,3302059.731470,-185.527130,55827.320809,-596.790114,-0.014378153,0.041661995,0.706526315,0.706313042,0.001013169,0.002503376,0.002972236,1.000000,0.000000,0.000000,0.000000,1,1,1,-27975.345049,1974.225499,11825.595986,-74.800469,23.429609,-902.611781,-0.449514,-3.898537,-3.051848,DIRECT / RAW,1.000000,0.000000,0.000000,0,-0.014378153,0.041661995,0.706526315,0.706313042
515.633333,102571.395333,4771.771939,472.435264,14.468781,5.560918,17440.698411,4822008966954.332031,27263153.129200,3302054.758007,-185.530876,55827.288321,-596.815546,-0.014382099,0.041672466,0.706534562,0.706304094,0.000993041,0.002505095,0.002912048,1.000000,0.000000,0.000000,0.000000,1,1,1,-27968.031659,1984.948624,11820.147401,-75.115893,18.804983,-907.237827,-0.450508,-3.897889,-3.052317,DIRECT / RAW,1.000000,0.000000,0.000000,0,-0.014382099,0.041672466,0.706534562,0.706304094
515.641667,102575.332253,4771.744460,472.458848,14.468698,5.560089,17436.164593,4822008966952.786133,27263618.356332,3302049.784333,-185.534630,55827.255839,-596.840982,-0.014386120,0.041682877,0.706542635,0.706295322,0.000972829,0.002506477,0.002851551,1.000000,0.000000,0.000000,0.000000,1,1,1,-27960.721312,1995.433514,11814.699156,-75.422469,14.180516,-911.755332,-0.451480,-3.897242,-3.052786,DIRECT / RAW,1.000000,0.000000,0.000000,0,-0.014386120,0.041682877,0.706542635,0.706295322
515.650000,102579.269368,4771.716987,472.482430,14.468615,5.559259,17431.631783,4822008966951.240234,27264083.583193,3302044.810446,-185.538392,55827.223362,-596.866421,-0.014390214,0.041693228,0.706550532,0.706286728,0.000952535,0.002507524,0.002790754,1.000000,0.000000,0.000000,0.000000,1,1,1,-27953.414041,2005.679227,11809.251723,-75.720170,9.556890,-916.163894,-0.452430,-3.896595,-3.053256,DIRECT / RAW,1.000000,0.000000,0.000000,0,-0.014390214,0.041693228,0.706550532,0.706286728
515.658333,102583.206681,4771.689521,472.506008,14.468532,5.558429,17427.099979,4822008966949.694336,27264548.809784,3302039.836347,-185.542162,55827.190890,-596.891865,-0.014394381,0.041703517,0.706558253,0.706278312,0.000932161,0.002508234,0.002729663,1.000000,0.000000,0.000000,0.000000,1,1,1,-27946.109876,2015.684850,11803.805566,-76.008973,4.934785,-920.463123,-0.453359,-3.895948,-3.053727,DIRECT / RAW,1.000000,0.000000,0.000000,0,-0.014394381,0.041703517,0.706558253,0.706278312
515.666667,102587.144190,4771.662061,472.529583,14.468448,5.557599,17422.569181,4822008966948.148438,27265014.036104,3302034.862036,-185.545940,55827.158424,-596.917313,-0.014398620,0.041713744,0.706565796,0.706270075,0.000911710,0.002508609,0.002668286,1.000000,0.000000,0.000000,0.000000,1,1,1,-27938.808847,2025.449499,11798.361156,-76.288852,0.314878,-924.652643,-0.454265,-3.895302,-3.054199,DIRECT / RAW,1.000000,0.000000,0.000000,0,-0.014398620,0.041713744,0.706565796,0.706270075
515.675000,102591.081896,4771.634607,472.553154,14.468365,5.556769,17418.039389,4822008966946.602539,27265479.262154,3302029.887513,-185.549726,55827.125963,-596.942765,-0.014402929,0.041723906,0.706573161,0.706262019,0.000891185,0.002508649,0.002606629,1.000000,0.000000,0.000000,0.000000,1,1,1,-27931.510986,2034.972319,11792.918958,-76.559787,-4.302153,-928.732094,-0.455150,-3.894655,-3.054671,DIRECT / RAW,1.000000,0.000000,0.000000,0,-0.014402929,0.041723906,0.706573161,0.706262019
515.683333,102595.019797,4771.607159,472.576722,14.468282,5.555939,17413.510604,4822008966945.056641,27265944.487933,3302024.912778,-185.553519,55827.093508,-596.968220,-0.014407310,0.041734003,0.706580348,0.706254143,0.000870587,0.002508353,0.002544701,1.000000,0.000000,0.000000,0.000000,1,1,1,-27924.216321,2044.252484,11787.479438,-76.821756,-8.915630,-932.701125,-0.456012,-3.894010,-3.055144,DIRECT / RAW,1.000000,0.000000,0.000000,0,-0.014407310,0.041734003,0.706580348,0.706254143
515.691667,102598.957896,4771.579717,472.600286,14.468199,5.555109,17408.982824,4822008966943.510742,27266409.713442,3302019.937830,-185.557319,55827.061058,-596.993680,-0.014411760,0.041744034,0.706587355,0.706246449,0.000849918,0.002507722,0.002482509,1.000000,0.000000,0.000000,0.000000,1,1,1,-27916.924880,2053.289197,11782.043061,-77.074737,-13.524880,-936.559400,-0.456852,-3.893364,-3.055618,DIRECT / RAW,1.000000,0.000000,0.000000,0,-0.014411760,0.041744034,0.706587355,0.706246449
515.700000,102602.896191,4771.552282,472.623847,14.468115,5.554281,17404.456049,4822008966941.964844,27266874.938681,3302014.962671,-185.561126,55827.028613,-597.019143,-0.014416279,0.041753997,0.706594181,0.706238938,0.000829183,0.002506756,0.002420060,1.000000,0.000000,0.000000,0.000000,1,1,1,-27909.636690,2062.081691,11776.610290,-77.318712,-18.129229,-940.306597,-0.457670,-3.892719,-3.056092,DIRECT / RAW,1.000000,0.000000,0.000000,0,-0.014416279,0.041753997,0.706594181,0.706238938
515.708333,102606.834681,4771.524853,472.647405,14.468032,5.553452,17399.930282,4822008966940.418945,27267340.163649,3302009.987299,-185.564940,55826.996174,-597.044611,-0.014420867,0.041763891,0.706600827,0.706231610,0.000808382,0.002505456,0.002357361,1.000000,0.000000,0.000000,0.000000,1,1,1,-27902.351780,2070.629229,11771.181589,-77.553662,-22.728005,-943.942405,-0.458465,-3.892074,-3.056566,DIRECT / RAW,1.000000,0.000000,0.000000,0,-0.014420867,0.041763891,0.706600827,0.706231610
515.716667,102610.773369,4771.497430,472.670959,14.467949,5.552625,17395.405517,4822008966938.872070,27267805.388346,3302005.011715,-185.568760,55826.963740,-597.070082,-0.014425522,0.041773716,0.706607291,0.706224467,0.000787518,0.002503822,0.002294420,1.000000,0.000000,0.000000,0.000000,1,1,1,-27895.070170,2078.931100,11765.757417,-77.779570,-27.320539,-947.466530,-0.459238,-3.891429,-3.057041,DIRECT / RAW,1.000000,0.000000,0.000000,0,-0.014425522,0.041773716,0.706607291,0.706224467
515.725000,102614.712254,4771.470013,472.694510,14.467866,5.551798,17390.881758,4822008966937.325195,27268270.612774,3302000.035919,-185.572587,55826.931311,-597.095557,-0.014430244,0.041783469,0.706613573,0.706217508,0.000766594,0.002501854,0.002231245,1.000000,0.000000,0.000000,0.000000,1,1,1,-27887.791890,2086.986626,11760.338236,-77.996421,-31.906163,-950.878688,-0.459989,-3.890784,-3.057517,DIRECT / RAW,1.000000,0.000000,0.000000,0,-0.014430244,0.041783469,0.706613573,0.706217508
515.733333,102618.651335,4771.442602,472.718057,14.467783,5.550973,17386.359003,4822008966935.778320,27268735.836931,3301995.059910,-185.576421,55826.898888,-597.121037,-0.014435031,0.041793150,0.706619672,0.706210735,0.000745612,0.002499554,0.002167842,1.000000,0.000000,0.000000,0.000000,1,1,1,-27880.516962,2094.795156,11754.924504,-78.204198,-36.484209,-954.178608,-0.460717,-3.890140,-3.057993,DIRECT / RAW,1.000000,0.000000,0.000000,0,-0.014435031,0.041793150,0.706619672,0.706210735
515.741667,102622.590611,4771.415198,472.741602,14.467700,5.550149,17381.837255,4822008966934.231445,27269201.060819,3301990.083689,-185.580260,55826.866470,-597.146520,-0.014439884,0.041802757,0.706625587,0.706204148,0.000724575,0.002496921,0.002104220,1.000000,0.000000,0.000000,0.000000,1,1,1,-27873.245412,2102.356070,11749.516680,-78.402887,-41.054014,-957.366036,-0.461422,-3.889496,-3.058469,DIRECT / RAW,1.000000,0.000000,0.000000,0,-0.014439884,0.041802757,0.706625587,0.706204148
515.750000,102626.530084,4771.387800,472.765142,14.467617,5.549327,17377.316510,4822008966932.684570,27269666.284436,3301985.107256,-185.584105,55826.834058,-597.172007,-0.014444802,0.041812289,0.706631318,0.706197749,0.000703485,0.002493957,0.002040385,1.000000,0.000000,0.000000,0.000000,1,1,1,-27865.977258,2109.668776,11744.115217,-78.592477,-45.614916,-960.440727,-0.462105,-3.888852,-3.058946,DIRECT / RAW,1.000000,0.000000,0.000000,0,-0.014444802,0.041812289,0.706631318,0.706197749
515.758333,102630.469754,4771.360408,472.788679,14.467534,5.548506,17372.796770,4822008966931.137695,27270131.507783,3301980.130610,-185.587956,55826.801651,-597.197498,-0.014449783,0.041821746,0.706636865,0.706191537,0.000682344,0.002490661,0.001976346,1.000000,0.000000,0.000000,0.000000,1,1,1,-27858.712524,2116.732714,11738.720572,-78.772954,-50.166254,-963.402452,-0.462765,-3.888209,-3.059423,DIRECT / RAW,1.000000,0.000000,0.000000,0,-0.014449783,0.041821746,0.706636865,0.706191537
515.766667,102634.409618,4771.333022,472.812213,14.467451,5.547687,17368.278036,4822008966929.590820,27270596.730860,3301975.153752,-185.591812,55826.769249,-597.222994,-0.014454827,0.041831126,0.706642226,0.706185513,0.000661156,0.002487035,0.001912110,1.000000,0.000000,0.000000,0.000000,1,1,1,-27851.451232,2123.547349,11733.333198,-78.944309,-54.707370,-966.250994,-0.463402,-3.887566,-3.059900,DIRECT / RAW,1.000000,0.000000,0.000000,0,-0.014454827,0.041831126,0.706642226,0.706185513
515.775000,102638.349679,4771.305643,472.835743,14.467367,5.546870,17363.760306,4822008966928.043945,27271061.953667,3301970.176681,-185.595674,55826.736852,-597.248493,-0.014459933,0.041840427,0.706647402,0.706179679,0.000639921,0.002483079,0.001847684,1.000000,0.000000,0.000000,0.000000,1,1,1,-27844.193400,2130.112180,11727.953545,-79.106530,-59.237610,-968.986151,-0.464017,-3.886923,-3.060378,DIRECT / RAW,1.000000,0.000000,0.000000,0,-0.014459933,0.041840427,0.706647402,0.706179679
515.783333,102642.289936,4771.278270,472.859270,14.467284,5.546055,17359.243579,4822008966926.497070,27271527.176204,3301965.199398,-185.599541,55826.704461,-597.273996,-0.014465100,0.041849650,0.706652391,0.706174034,0.000618644,0.002478795,0.001783076,1.000000,0.000000,0.000000,0.000000,1,1,1,-27836.939045,2136.426733,11722.582062,-79.259610,-63.756320,-971.607733,-0.464608,-3.886281,-3.060855,DIRECT / RAW,1.000000,0.000000,0.000000,0,-0.014465100,0.041849650,0.706652391,0.706174034
515.791667,102646.230388,4771.250903,472.882794,14.467202,5.545243,17354.727857,4822008966924.950195,27271992.398472,3301960.221902,-185.603413,55826.672076,-597.299503,-0.014470328,0.041858792,0.706657194,0.706168579,0.000597325,0.002474182,0.001718293,1.000000,0.000000,0.000000,0.000000,1,1,1,-27829.688187,2142.490564,11717.219198,-79.403541,-68.262849,-974.115563,-0.465177,-3.885638,-3.061333,DIRECT / RAW,1.000000,0.000000,0.000000,0,-0.014470328,0.041858792,0.706657194,0.706168579
515.800000,102650.171038,4771.223542,472.906314,14.467119,5.544433,17350.213138,4822008966923.403320,27272457.620469,3301955.244193,-185.607289,55826.639695,-597.325014,-0.014475616,0.041867853,0.706661809,0.706163315,0.000575969,0.002469243,0.001653344,1.000000,0.000000,0.000000,0.000000,1,1,1,-27822.440840,2148.303259,11711.865397,-79.538316,-72.756552,-976.509477,-0.465723,-3.884996,-3.061811,DIRECT / RAW,1.000000,0.000000,0.000000,0,-0.014475616,0.041867853,0.706661809,0.706163315
515.808333,102654.111883,4771.196187,472.929830,14.467036,5.543625,17345.699423,4822008966921.856445,27272922.842197,3301950.266272,-185.611170,55826.607320,-597.350529,-0.014480962,0.041876832,0.706666237,0.706158242,0.000554577,0.002463977,0.001588236,1.000000,0.000000,0.000000,0.000000,1,1,1,-27815.197022,2153.864432,11706.521105,-79.663930,-77.236781,-978.789327,-0.466246,-3.884355,-3.062290,DIRECT / RAW,1.000000,0.000000,0.000000,0,-0.014480962,0.041876832,0.706666237,0.706158242
515.816667,102658.052924,4771.168838,472.953343,14.466953,5.542820,17341.186711,4822008966920.309570,27273388.063655,3301945.288138,-185.615056,55826.574951,-597.376048,-0.014486366,0.041885727,0.706670476,0.706153361,0.000533151,0.002458386,0.001522975,1.000000,0.000000,0.000000,0.000000,1,1,1,-27807.956746,2159.173728,11701.186761,-79.780378,-81.702896,-980.954976,-0.466745,-3.883713,-3.062768,DIRECT / RAW,1.000000,0.000000,0.000000,0,-0.014486366,0.041885727,0.706670476,0.706153361
515.825000,102661.994161,4771.141496,472.976853,14.466870,5.542018,17336.675004,4822008966918.762695,27273853.284843,3301940.309792,-185.618945,55826.542587,-597.401571,-0.014491827,0.041894538,0.706674528,0.706148672,0.000511695,0.002452471,0.001457571,1.000000,0.000000,0.000000,0.000000,1,1,1,-27800.720029,2164.230820,11695.862809,-79.887656,-86.154257,-983.006300,-0.467222,-3.883072,-3.063246,DIRECT / RAW,1.000000,0.000000,0.000000,0,-0.014491827,0.041894538,0.706674528,0.706148672
515.833333,102665.935594,4771.114160,473.000359,14.466787,5.541219,17332.164298,4822008966917.215820,27274318.505761,3301935.331233,-185.622839,55826.510228,-597.427098,-0.014497345,0.041903263,0.706678390,0.706144176,0.000490210,0.002446233,0.001392030,1.000000,0.000000,0.000000,0.000000,1,1,1,-27793.486880,2169.035414,11690.549682,-79.985763,-90.590227,-984.943190,-0.467676,-3.882431,-3.063725,DIRECT / RAW,1.000000,0.000000,0.000000,0,-0.014497345,0.041903263,0.706678390,0.706144176
515.841667,102669.877222,4771.086830,473.023862,14.466704,5.540424,17327.654597,4822008966915.668945,27274783.726410,3301930.352461,-185.626736,55826.477874,-597.452630,-0.014502918,0.041911901,0.706682063,0.706139872,0.000468699,0.002439673,0.001326361,1.000000,0.000000,0.000000,0.000000,1,1,1,-27786.257314,2173.587240,11685.247820,-80.074697,-95.010175,-986.765550,-0.468107,-3.881790,-3.064203,DIRECT / RAW,1.000000,0.000000,0.000000,0,-0.014502918,0.041911901,0.706682063,0.706139872
515.850000,102673.819046,4771.059506,473.047361,14.466621,5.539631,17323.145898,4822008966914.122070,27275248.946790,3301925.373476,-185.630637,55826.445526,-597.478165,-0.014508545,0.041920452,0.706685547,0.706135763,0.000447165,0.002432793,0.001260570,1.000000,0.000000,0.000000,0.000000,1,1,1,-27779.031341,2177.886062,11679.957654,-80.154458,-99.413468,-988.473295,-0.468514,-3.881150,-3.064681,DIRECT / RAW,1.000000,0.000000,0.000000,0,-0.014508545,0.041920452,0.706685547,0.706135763
515.858333,102677.761066,4771.032189,473.070857,14.466538,5.538843,17318.638202,4822008966912.575195,27275714.166900,3301920.394279,-185.634541,55826.413183,-597.503704,-0.014514227,0.041928914,0.706688841,0.706131847,0.000425610,0.002425593,0.001194665,1.000000,0.000000,0.000000,0.000000,1,1,1,-27771.808971,2181.931671,11674.679616,-80.225047,-103.799483,-990.066356,-0.468899,-3.880510,-3.065159,DIRECT / RAW,1.000000,0.000000,0.000000,0,-0.014514227,0.041928914,0.706688841,0.706131847
515.866667,102681.703283,4771.004877,473.094349,14.466455,5.538057,17314.131508,4822008966911.028320,27276179.386740,3301915.414868,-185.638449,55826.380845,-597.529247,-0.014519961,0.041937286,0.706691945,0.706128126,0.000404036,0.002418075,0.001128655,1.000000,0.000000,0.000000,0.000000,1,1,1,-27764.590210,2185.723888,11669.414133,-80.286465,-108.167594,-991.544677,-0.469260,-3.879870,-3.065638,DIRECT / RAW,1.000000,0.000000,0.000000,0,-0.014519961,0.041937286,0.706691945,0.706128126
515.875000,102685.645693,4770.977572,473.117838,14.466373,5.537276,17309.625818,4822008966909.481445,27276644.606311,3301910.435245,-185.642359,55826.348513,-597.554794,-0.014525747,0.041945568,0.706694858,0.706124599,0.000382447,0.002410239,0.001062547,1.000000,0.000000,0.000000,0.000000,1,1,1,-27757.375072,2189.262563,11664.161634,-80.338715,-112.517183,-992.908214,-0.469598,-3.879231,-3.066115,DIRECT / RAW,1.000000,0.000000,0.000000,0,-0.014525747,0.041945568,0.706694858,0.706124599
515.883333,102689.588301,4770.950273,473.141324,14.466290,5.536499,17305.121128,4822008966907.934570,27277109.825613,3301905.455409,-185.646272,55826.316186,-597.580344,-0.014531584,0.041953758,0.706697581,0.706121267,0.000360843,0.002402089,0.000996348,1.000000,0.000000,0.000000,0.000000,1,1,1,-27750.163557,2192.547576,11658.922540,-80.381801,-116.847633,-994.156936,-0.469913,-3.878591,-3.066593,DIRECT / RAW,1.000000,0.000000,0.000000,0,-0.014531584,0.041953758,0.706697581,0.706121267
515.891667,102693.531105,4770.922980,473.164806,14.466207,5.535725,17300.617441,4822008966906.387695,27277575.044645,3301900.475360,-185.650188,55826.283864,-597.605899,-0.014537472,0.041961856,0.706700113,0.706118130,0.000339229,0.002393624,0.000930066,1.000000,0.000000,0.000000,0.000000,1,1,1,-27742.955674,2195.578837,11653.697273,-80.415729,-121.158331,-995.290828,-0.470205,-3.877952,-3.067071,DIRECT / RAW,1.000000,0.000000,0.000000,0,-0.014537472,0.041961856,0.706700113,0.706118130
515.900000,102697.474103,4770.895693,473.188284,14.466124,5.534957,17296.114756,4822008966904.840820,27278040.263408,3301895.495098,-185.654107,55826.251548,-597.631458,-0.014543409,0.041969860,0.706702455,0.706115189,0.000317606,0.002384847,0.000863709,1.000000,0.000000,0.000000,0.000000,1,1,1,-27735.751430,2198.356283,11648.486254,-80.440504,-125.448669,-996.309884,-0.470474,-3.877314,-3.067548,DIRECT / RAW,1.000000,0.000000,0.000000,0,-0.014543409,0.041969860,0.706702455,0.706115189
515.908333,102701.417296,4770.868412,473.211760,14.466042,5.534192,17291.613074,4822008966903.293945,27278505.481901,3301890.514622,-185.658027,55826.219237,-597.657021,-0.014549394,0.041977770,0.706704605,0.706112444,0.000295976,0.002375758,0.000797284,1.000000,0.000000,0.000000,0.000000,1,1,1,-27728.550828,2200.879881,11643.289898,-80.456134,-129.718041,-997.214115,-0.470719,-3.876675,-3.068025,DIRECT / RAW,1.000000,0.000000,0.000000,0,-0.014549394,0.041977770,0.706704605,0.706112444
515.916667,102705.360687,4770.841138,473.235231,14.465959,5.533432,17287.112392,4822008966901.747070,27278970.700126,3301885.533934,-185.661950,55826.186932,-597.682588,-0.014555427,0.041985584,0.706706563,0.706109895,0.000274343,0.002366360,0.000730799,1.000000,0.000000,0.000000,0.000000,1,1,1,-27721.353866,2203.149628,11638.108616,-80.462626,-133.965847,-998.003543,-0.470942,-3.876037,-3.068501,DIRECT / RAW,1.000000,0.000000,0.000000,0,-0.014555427,0.041985584,0.706706563,0.706109895
515.925000,102709.304272,4770.813869,473.258700,14.465876,5.532677,17282.612713,4822008966900.200195,27279435.918081,3301880.553033,-185.665874,55826.154631,-597.708159,-0.014561507,0.041993302,0.706708330,0.706107542,0.000252709,0.002356653,0.000664262,1.000000,0.000000,0.000000,0.000000,1,1,1,-27714.160552,2205.165551,11632.942822,-80.459989,-138.191489,-998.678204,-0.471141,-3.875399,-3.068978,DIRECT / RAW,1.000000,0.000000,0.000000,0,-0.014561507,0.041993302,0.706708330,0.706107542
515.933333,102713.248052,4770.786607,473.282164,14.465794,5.531926,17278.114034,4822008966898.653320,27279901.135767,3301875.571918,-185.669801,55826.122336,-597.733734,-0.014567632,0.042000923,0.706709906,0.706105385,0.000231076,0.002346641,0.000597680,1.000000,0.000000,0.000000,0.000000,1,1,1,-27706.970884,2206.927702,11627.792922,-80.448235,-142.394374,-999.238147,-0.471316,-3.874761,-3.069454,DIRECT / RAW,1.000000,0.000000,0.000000,0,-0.014567632,0.042000923,0.706709906,0.706105385
515.941667,102717.192029,4770.759351,473.305626,14.465711,5.531181,17273.616357,4822008966897.106445,27280366.353184,3301870.590591,-185.673728,55826.090047,-597.759313,-0.014573803,0.042008445,0.706711290,0.706103425,0.000209446,0.002336323,0.000531061,1.000000,0.000000,0.000000,0.000000,1,1,1,-27699.784862,2208.436167,11622.659322,-80.427373,-146.573913,-999.683433,-0.471469,-3.874124,-3.069929,DIRECT / RAW,1.000000,0.000000,0.000000,0,-0.014573803,0.042008445,0.706711290,0.706103425
515.950000,102721.136200,4770.732101,473.329084,14.465628,5.530441,17269.119680,4822008966895.559570,27280831.570332,3301865.609050,-185.677657,55826.057762,-597.784895,-0.014580017,0.042015869,0.706712482,0.706101662,0.000187822,0.002325703,0.000464412,1.000000,0.000000,0.000000,0.000000,1,1,1,-27692.602485,2209.691057,11617.542422,-80.397417,-150.729521,-1000.014138,-0.471599,-3.873487,-3.070404,DIRECT / RAW,1.000000,0.000000,0.000000,0,-0.014580017,0.042015869,0.706712482,0.706101662
515.958333,102725.080567,4770.704857,473.352538,14.465546,5.529706,17264.624005,4822008966894.012695,27281296.787211,3301860.627296,-185.681587,55826.025483,-597.810482,-0.014586275,0.042023193,0.706713483,0.706100096,0.000166207,0.002314781,0.000397742,1.000000,0.000000,0.000000,0.000000,1,1,1,-27685.423750,2210.692515,11612.442624,-80.358379,-154.860618,-1000.230350,-0.471705,-3.872850,-3.070879,DIRECT / RAW,1.000000,0.000000,0.000000,0,-0.014586275,0.042023193,0.706713483,0.706100096
515.966667,102729.025131,4770.677620,473.375990,14.465463,5.528976,17260.129329,4822008966892.464844,27281762.003821,3301855.645329,-185.685518,55825.993210,-597.836073,-0.014592575,0.042030416,0.706714291,0.706098726,0.000144603,0.002303559,0.000331058,1.000000,0.000000,0.000000,0.000000,1,1,1,-27678.248654,2211.440710,11607.360321,-80.310274,-158.966627,-1000.332170,-0.471788,-3.872213,-3.071353,DIRECT / RAW,1.000000,0.000000,0.000000,0,-0.014592575,0.042030416,0.706714291,0.706098726
515.975000,102732.969890,4770.650388,473.399437,14.465380,5.528252,17255.635654,4822008966890.916992,27282227.220162,3301850.663148,-185.689450,55825.960941,-597.861667,-0.014598916,0.042037538,0.706714908,0.706097554,0.000123012,0.002292040,0.000264368,1.000000,0.000000,0.000000,0.000000,1,1,1,-27671.077192,2211.935841,11602.295907,-80.253117,-163.046978,-1000.319712,-0.471848,-3.871577,-3.071826,DIRECT / RAW,1.000000,0.000000,0.000000,0,-0.014598916,0.042037538,0.706714908,0.706097554
515.983333,102736.914844,4770.623162,473.422882,14.465298,5.527534,17251.142979,4822008966889.369141,27282692.436235,3301845.680754,-185.693382,55825.928678,-597.887266,-0.014605297,0.042044557,0.706715333,0.706096579,0.000101437,0.002280226,0.000197678,1.000000,0.000000,0.000000,0.000000,1,1,1,-27663.909361,2212.178136,11597.249772,-80.186924,-167.101101,-1000.193103,-0.471885,-3.870941,-3.072299,DIRECT / RAW,1.000000,0.000000,0.000000,0,-0.014605297,0.042044557,0.706715333,0.706096579
515.991667,102740.859993,4770.595943,473.446323,14.465215,5.526821,17246.651304,4822008966887.821289,27283157.652038,3301840.698147,-185.697314,55825.896420,-597.912868,-0.014611718,0.042051473,0.706715567,0.706095800,0.000079880,0.002268117,0.000130997,1.000000,0.000000,0.000000,0.000000,1,1,1,-27656.745153,2212.167852,11592.222304,-80.111714,-171.128436,-999.952482,-0.471899,-3.870305,-3.072771,DIRECT / RAW,1.000000,0.000000,0.000000,0,-0.014611718,0.042051473,0.706715567,0.706095800
516.000000,102744.805338,4770.568730,473.469760,14.465133,5.526115,17242.160629,4822008966886.273438,27283622.867573,3301835.715326,-185.701247,55825.864168,-597.938475,-0.014618177,0.042058286,0.706715608,0.706095219,0.000058344,0.002255716,0.000064333,1.000000,0.000000,0.000000,0.000000,1,1,1,-27649.584561,2211.905273,11587.213884,-80.027503,-175.128423,-999.598003,-0.471890,-3.869669,-3.073243,DIRECT / RAW,1.000000,0.000000,0.000000,0,-0.014618177,0.042058286,0.706715608,0.706095219
516.008333,102748.750877,4770.541523,473.493194,14.465050,5.525415,17237.670955,4822008966884.725586,27284088.082839,3301830.732292,-185.705179,55825.831920,-597.964085,-0.014624674,0.042064993,0.706715458,0.706094835,0.000036831,0.002243026,-0.000002308,1.000000,0.000000,0.000000,0.000000,1,1,1,-27642.427580,2211.390712,11582.224895,-79.934312,-179.100510,-999.129831,-0.471858,-3.869034,-3.073714,DIRECT / RAW,1.000000,0.000000,0.000000,0,-0.014624674,0.042064993,0.706715458,0.706094835
516.016667,102752.696614,4770.514322,473.516625,14.464968,5.524721,17233.182278,4822008966883.177734,27284553.297836,3301825.749045,-185.709111,55825.799678,-597.989699,-0.014631208,0.042071595,0.706715117,0.706094648,0.000015343,0.002230048,-0.000068917,1.000000,0.000000,0.000000,0.000000,1,1,1,-27635.274193,2210.624511,11577.255711,-79.832160,-183.044149,-998.548144,-0.471802,-3.868399,-3.074184,DIRECT / RAW,1.000000,0.000000,0.000000,0,-0.014631208,0.042071595,0.706715117,0.706094648
516.025000,102756.642545,4770.487127,473.540052,14.464885,5.524033,17228.694602,4822008966881.629883,27285018.512565,3301820.765584,-185.713043,55825.767442,-598.015318,-0.014637777,0.042078091,0.706714584,0.706094658,-0.000006116,0.002216784,-0.000135487,1.000000,0.000000,0.000000,0.000000,1,1,1,-27628.124397,2209.607040,11572.306706,-79.721070,-186.958795,-997.853134,-0.471724,-3.867764,-3.074653,DIRECT / RAW,1.000000,0.000000,0.000000,0,-0.014637777,0.042078091,0.706714584,0.706094658
516.033333,102760.588670,4770.459938,473.563476,14.464803,5.523352,17224.207926,4822008966880.082031,27285483.727025,3301815.781909,-185.716974,55825.735210,-598.040940,-0.014644381,0.042084479,0.706713860,0.706094865,-0.000027546,0.002203236,-0.000202011,1.000000,0.000000,0.000000,0.000000,1,1,1,-27620.978178,2208.338697,11567.378251,-79.601063,-190.843910,-997.045004,-0.471623,-3.867130,-3.075122,DIRECT / RAW,1.000000,0.000000,0.000000,0,-0.014644381,0.042084479,0.706713860,0.706094865
516.041667,102764.534990,4770.432755,473.586896,14.464721,5.522678,17219.722249,4822008966878.534180,27285948.941217,3301810.798021,-185.720904,55825.702984,-598.066566,-0.014651019,0.042090760,0.706712945,0.706095269,-0.000048943,0.002189407,-0.000268480,1.000000,0.000000,0.000000,0.000000,1,1,1,-27613.835525,2206.819908,11562.470713,-79.472163,-194.698961,-996.123971,-0.471499,-3.866495,-3.075590,DIRECT / RAW,1.000000,0.000000,0.000000,0,-0.014651019,0.042090760,0.706712945,0.706095269
516.050000,102768.481505,4770.405578,473.610314,14.464638,5.522010,17215.237572,4822008966876.986328,27286414.155140,3301805.813920,-185.724833,55825.670763,-598.092196,-0.014657690,0.042096932,0.706711840,0.706095869,-0.000070305,0.002175298,-0.000334888,1.000000,0.000000,0.000000,0.000000,1,1,1,-27606.696424,2205.051127,11557.584453,-79.334394,-198.523420,-995.090265,-0.471352,-3.865861,-3.076057,DIRECT / RAW,1.000000,0.000000,0.000000,0,-0.014657690,0.042096932,0.706711840,0.706095869
516.058333,102772.428217,4770.378408,473.633727,14.464556,5.521350,17210.753893,4822008966875.438477,27286879.368794,3301800.829604,-185.728761,55825.638548,-598.117829,-0.014664394,0.042102996,0.706710543,0.706096666,-0.000091629,0.002160913,-0.000401226,1.000000,0.000000,0.000000,0.000000,1,1,1,-27599.560860,2203.032836,11552.719831,-79.187781,-202.316763,-993.944126,-0.471182,-3.865228,-3.076523,DIRECT / RAW,1.000000,0.000000,0.000000,0,-0.014664394,0.042102996,0.706710543,0.706096666
516.066667,102776.375122,4770.351243,473.657138,14.464473,5.520696,17206.271213,4822008966873.890625,27287344.582180,3301795.845076,-185.732688,55825.606338,-598.143467,-0.014671128,0.042108949,0.706709057,0.706097659,-0.000112914,0.002146252,-0.000467488,1.000000,0.000000,0.000000,0.000000,1,1,1,-27592.428819,2200.765544,11547.877204,-79.032351,-206.078472,-992.685809,-0.470990,-3.864594,-3.076988,DIRECT / RAW,1.000000,0.000000,0.000000,0,-0.014671128,0.042108949,0.706709057,0.706097659
516.075000,102780.322223,4770.324085,473.680545,14.464391,5.520050,17201.789530,4822008966872.342773,27287809.795298,3301790.860333,-185.736613,55825.574133,-598.169109,-0.014677892,0.042114792,0.706707380,0.706098848,-0.000134157,0.002131319,-0.000533666,1.000000,0.000000,0.000000,0.000000,1,1,1,-27585.300283,2198.249790,11543.056921,-78.868131,-209.808035,-991.315580,-0.470774,-3.863961,-3.077452,DIRECT / RAW,1.000000,0.000000,0.000000,0,-0.014677892,0.042114792,0.706707380,0.706098848
516.083333,102784.269520,4770.296932,473.703949,14.464309,5.519411,17197.308846,4822008966870.794922,27288275.008148,3301785.875377,-185.740536,55825.541933,-598.194754,-0.014684685,0.042120523,0.706705513,0.706100233,-0.000155355,0.002116116,-0.000599752,1.000000,0.000000,0.000000,0.000000,1,1,1,-27578.175235,2195.486138,11538.259333,-78.695149,-213.504945,-989.833720,-0.470536,-3.863328,-3.077915,DIRECT / RAW,1.000000,0.000000,0.000000,0,-0.014684685,0.042120523,0.706705513,0.706100233
516.091667,102788.217010,4770.269786,473.727349,14.464226,5.518779,17192.829161,4822008966869.247070,27288740.220729,3301780.890207,-185.744457,55825.509739,-598.220403,-0.014691507,0.042126143,0.706703457,0.706101814,-0.000176506,0.002100646,-0.000665739,1.000000,0.000000,0.000000,0.000000,1,1,1,-27571.053661,2192.475181,11533.484784,-78.513434,-217.168699,-988.240519,-0.470276,-3.862695,-3.078378,DIRECT / RAW,1.000000,0.000000,0.000000,0,-0.014691507,0.042126143,0.706703457,0.706101814
516.100000,102792.164696,4770.242646,473.750746,14.464144,5.518155,17188.350474,4822008966867.699219,27289205.433042,3301775.904823,-185.748376,55825.477550,-598.246057,-0.014698356,0.042131651,0.706701211,0.706103590,-0.000197608,0.002084910,-0.000731619,1.000000,0.000000,0.000000,0.000000,1,1,1,-27563.935538,2189.217539,11528.733614,-78.323016,-220.798801,-986.536281,-0.469993,-3.862063,-3.078839,DIRECT / RAW,1.000000,0.000000,0.000000,0,-0.014698356,0.042131651,0.706701211,0.706103590
516.108333,102796.112578,4770.215512,473.774140,14.464062,5.517539,17183.872784,4822008966866.151367,27289670.645086,3301770.919225,-185.752292,55825.445366,-598.271714,-0.014705231,0.042137045,0.706698777,0.706105562,-0.000218658,0.002068911,-0.000797386,1.000000,0.000000,0.000000,0.000000,1,1,1,-27556.820846,2185.713858,11524.006160,-78.123927,-224.394761,-984.721322,-0.469687,-3.861430,-3.079299,DIRECT / RAW,1.000000,0.000000,0.000000,0,-0.014705231,0.042137045,0.706698777,0.706105562
516.116667,102800.060653,4770.188383,473.797530,14.463979,5.516930,17179.396092,4822008966864.603516,27290135.856863,3301765.933414,-185.756206,55825.413187,-598.297374,-0.014712132,0.042142325,0.706696154,0.706107728,-0.000239655,0.002052651,-0.000863032,1.000000,0.000000,0.000000,0.000000,1,1,1,-27549.709568,2181.964813,11519.302757,-77.916198,-227.956092,-982.795971,-0.469359,-3.860798,-3.079758,DIRECT / RAW,1.000000,0.000000,0.000000,0,-0.014712132,0.042142325,0.706696154,0.706107728
516.125000,102804.008924,4770.161261,473.820917,14.463897,5.516330,17174.920397,4822008966863.055664,27290601.068371,3301760.947388,-185.760118,55825.381014,-598.323039,-0.014719058,0.042147492,0.706693343,0.706110089,-0.000260595,0.002036134,-0.000928549,1.000000,0.000000,0.000000,0.000000,1,1,1,-27542.601678,2177.971105,11514.623731,-77.699863,-231.482317,-980.760568,-0.469009,-3.860167,-3.080216,DIRECT / RAW,1.000000,0.000000,0.000000,0,-0.014719058,0.042147492,0.706693343,0.706110089
516.133333,102807.957390,4770.134145,473.844301,14.463815,5.515738,17170.445700,4822008966861.507812,27291066.279612,3301755.961149,-185.764026,55825.348846,-598.348707,-0.014726006,0.042152543,0.706690344,0.706112643,-0.000281477,0.002019362,-0.000993930,1.000000,0.000000,0.000000,0.000000,1,1,1,-27535.497156,2173.733462,11509.969409,-77.474955,-234.972961,-978.615465,-0.468636,-3.859535,-3.080673,DIRECT / RAW,1.000000,0.000000,0.000000,0,-0.014726006,0.042152543,0.706690344,0.706112643
516.141667,102811.906050,4770.107035,473.867681,14.463733,5.515153,17165.972000,4822008966859.959961,27291531.490584,3301750.974696,-185.767931,55825.316683,-598.374380,-0.014732978,0.042157479,0.706687158,0.706115392,-0.000302299,0.002002337,-0.001059168,1.000000,0.000000,0.000000,0.000000,1,1,1,-27528.395979,2169.252639,11505.340113,-77.241509,-238.427556,-976.361028,-0.468241,-3.858904,-3.081129,DIRECT / RAW,1.000000,0.000000,0.000000,0,-0.014732978,0.042157479,0.706687158,0.706115392
516.150000,102815.854905,4770.079931,473.891059,14.463651,5.514578,17161.499297,4822008966858.412109,27291996.701288,3301745.988029,-185.771833,55825.284525,-598.400056,-0.014739971,0.042162299,0.706683785,0.706118334,-0.000323057,0.001985061,-0.001124255,1.000000,0.000000,0.000000,0.000000,1,1,1,-27521.298120,2164.529418,11500.736158,-76.999562,-241.845640,-973.997633,-0.467824,-3.858273,-3.081583,DIRECT / RAW,1.000000,0.000000,0.000000,0,-0.014739971,0.042162299,0.706683785,0.706118334
516.158333,102819.803954,4770.052833,473.914432,14.463568,5.514010,17157.027592,4822008966856.864258,27292461.911725,3301741.001148,-185.775732,55825.252373,-598.425736,-0.014746985,0.042167003,0.706680226,0.706121468,-0.000343750,0.001967539,-0.001189185,1.000000,0.000000,0.000000,0.000000,1,1,1,-27514.203557,2159.564605,11496.157858,-76.749148,-245.226757,-971.525668,-0.467384,-3.857642,-3.082037,DIRECT / RAW,1.000000,0.000000,0.000000,0,-0.014746985,0.042167003,0.706680226,0.706121468
516.166667,102823.753198,4770.025741,473.937803,14.463486,5.513451,17152.556883,4822008966855.316406,27292927.121893,3301736.014053,-185.779627,55825.220226,-598.451419,-0.014754018,0.042171589,0.706676481,0.706124796,-0.000364375,0.001949772,-0.001253949,1.000000,0.000000,0.000000,0.000000,1,1,1,-27507.112262,2154.359036,11491.605523,-76.490307,-248.570458,-968.945534,-0.466923,-3.857011,-3.082489,DIRECT / RAW,1.000000,0.000000,0.000000,0,-0.014754018,0.042171589,0.706676481,0.706124796
516.175000,102827.702638,4769.998655,473.961170,14.463404,5.512901,17148.087169,4822008966853.768555,27293392.331794,3301731.026743,-185.783518,55825.188084,-598.477107,-0.014761070,0.042176059,0.706672551,0.706128315,-0.000384930,0.001931762,-0.001318542,1.000000,0.000000,0.000000,0.000000,1,1,1,-27500.024207,2148.913571,11487.079455,-76.223077,-251.876297,-966.257643,-0.466439,-3.856381,-3.082939,DIRECT / RAW,1.000000,0.000000,0.000000,0,-0.014761070,0.042176059,0.706672551,0.706128315
516.183333,102831.652273,4769.971575,473.984535,14.463322,5.512360,17143.618452,4822008966852.220703,27293857.541427,3301726.039220,-185.787405,55825.155948,-598.502798,-0.014768140,0.042180410,0.706668435,0.706132026,-0.000405413,0.001913514,-0.001382955,1.000000,0.000000,0.000000,0.000000,1,1,1,-27492.939365,2143.229096,11482.579955,-75.947496,-255.143838,-963.462419,-0.465934,-3.855751,-3.083389,DIRECT / RAW,1.000000,0.000000,0.000000,0,-0.014768140,0.042180410,0.706668435,0.706132026
516.191667,102835.602101,4769.944501,474.007896,14.463240,5.511827,17139.150732,4822008966850.672852,27294322.750792,3301721.051483,-185.791288,55825.123817,-598.528493,-0.014775227,0.042184642,0.706664135,0.706135928,-0.000425822,0.001895029,-0.001447181,1.000000,0.000000,0.000000,0.000000,1,1,1,-27485.857711,2137.306524,11478.107322,-75.663606,-258.372647,-960.560298,-0.465407,-3.855121,-3.083837,DIRECT / RAW,1.000000,0.000000,0.000000,0,-0.014775227,0.042184642,0.706664135,0.706135928
516.200000,102839.552124,4769.917433,474.031253,14.463158,5.511303,17134.684008,4822008966849.125000,27294787.959890,3301716.063531,-185.795166,55825.091691,-598.554191,-0.014782330,0.042188756,0.706659652,0.706140020,-0.000446155,0.001876311,-0.001511214,1.000000,0.000000,0.000000,0.000000,1,1,1,-27478.779212,2131.146793,11473.661847,-75.371448,-261.562301,-957.551726,-0.464859,-3.854492,-3.084283,DIRECT / RAW,1.000000,0.000000,0.000000,0,-0.014782330,0.042188756,0.706659652,0.706140020
516.208333,102843.502342,4769.890371,474.054608,14.463076,5.510789,17130.218279,4822008966847.577148,27295253.168719,3301711.075365,-185.799040,55825.059570,-598.579894,-0.014789448,0.042192751,0.706654985,0.706144302,-0.000466408,0.001857361,-0.001575046,1.000000,0.000000,0.000000,0.000000,1,1,1,-27471.703838,2124.750866,11469.243815,-75.071063,-264.712378,-954.437163,-0.464288,-3.853862,-3.084729,DIRECT / RAW,1.000000,0.000000,0.000000,0,-0.014789448,0.042192751,0.706654985,0.706144302
516.216667,102847.452755,4769.863316,474.077959,14.462994,5.510284,17125.753545,4822008966846.028320,27295718.377282,3301706.086985,-185.802909,55825.027454,-598.605600,-0.014796580,0.042196626,0.706650136,0.706148774,-0.000486581,0.001838184,-0.001638670,1.000000,0.000000,0.000000,0.000000,1,1,1,-27464.631558,2118.119733,11464.853511,-74.762495,-267.822467,-951.217078,-0.463696,-3.853233,-3.085173,DIRECT / RAW,1.000000,0.000000,0.000000,0,-0.014796580,0.042196626,0.706650136,0.706148774
516.225000,102851.403363,4769.836266,474.101307,14.462912,5.509788,17121.289807,4822008966844.479492,27296183.585576,3301701.098391,-185.806773,55824.995344,-598.631310,-0.014803726,0.042200380,0.706645105,0.706153435,-0.000506670,0.001818782,-0.001702080,1.000000,0.000000,0.000000,0.000000,1,1,1,-27457.562341,2111.254408,11460.491215,-74.445787,-270.892160,-947.891953,-0.463083,-3.852605,-3.085615,DIRECT / RAW,1.000000,0.000000,0.000000,0,-0.014803726,0.042200380,0.706645105,0.706153435
516.233333,102855.354166,4769.809222,474.124652,14.462830,5.509302,17116.827064,4822008966842.930664,27296648.793603,3301696.109583,-185.810632,55824.963239,-598.657023,-0.014810883,0.042204014,0.706639893,0.706158283,-0.000526674,0.001799158,-0.001765267,1.000000,0.000000,0.000000,0.000000,1,1,1,-27450.496154,2104.155932,11456.157200,-74.120984,-273.921058,-944.462281,-0.462448,-3.851976,-3.086056,DIRECT / RAW,1.000000,0.000000,0.000000,0,-0.014810883,0.042204014,0.706639893,0.706158283
516.241667,102859.305161,4769.782184,474.147994,14.462748,5.508825,17112.365317,4822008966841.381836,27297114.001363,3301691.120560,-185.814486,55824.931139,-598.682740,-0.014818052,0.042207527,0.706634500,0.706163320,-0.000546590,0.001779315,-0.001828226,1.000000,0.000000,0.000000,0.000000,1,1,1,-27443.432968,2096.825368,11451.851739,-73.788133,-276.908765,-940.928566,-0.461792,-3.851348,-3.086495,DIRECT / RAW,1.000000,0.000000,0.000000,0,-0.014818052,0.042207527,0.706634500,0.706163320
516.250000,102863.256353,4769.755152,474.171332,14.462666,5.508357,17107.904563,4822008966839.833008,27297579.208855,3301686.131323,-185.818334,55824.899045,-598.708461,-0.014825231,0.042210919,0.706628927,0.706168543,-0.000566417,0.001759256,-0.001890949,1.000000,0.000000,0.000000,0.000000,1,1,1,-27436.372742,2089.263807,11447.575093,-73.447278,-279.854895,-937.291322,-0.461115,-3.850719,-3.086933,DIRECT / RAW,1.000000,0.000000,0.000000,0,-0.014825231,0.042210919,0.706628927,0.706168543
516.258333,102867.207740,4769.728125,474.194668,14.462584,5.507900,17103.444804,4822008966838.284180,27298044.416079,3301681.141871,-185.822177,55824.866955,-598.734185,-0.014832419,0.042214190,0.706623175,0.706173952,-0.000586152,0.001738984,-0.001953430,1.000000,0.000000,0.000000,0.000000,1,1,1,-27429.315446,2081.472362,11443.327527,-73.098468,-282.759068,-933.551077,-0.460417,-3.850091,-3.087369,DIRECT / RAW,1.000000,0.000000,0.000000,0,-0.014832419,0.042214190,0.706623175,0.706173952
516.266667,102871.159319,4769.701105,474.218000,14.462502,5.507452,17098.986042,4822008966836.735352,27298509.623036,3301676.152205,-185.826014,55824.834871,-598.759914,-0.014839616,0.042217338,0.706617244,0.706179547,-0.000605793,0.001718502,-0.002015661,1.000000,0.000000,0.000000,0.000000,1,1,1,-27422.261047,2073.452173,11439.109298,-72.741750,-285.620907,-929.708368,-0.459698,-3.849464,-3.087804,DIRECT / RAW,1.000000,0.000000,0.000000,0,-0.014839616,0.042217338,0.706617244,0.706179547
516.275000,102875.111094,4769.674091,474.241329,14.462420,5.507014,17094.528271,4822008966835.186523,27298974.829726,3301671.162325,-185.829844,55824.802792,-598.785645,-0.014846820,0.042220364,0.706611136,0.706185327,-0.000625338,0.001697813,-0.002077636,1.000000,0.000000,0.000000,0.000000,1,1,1,-27415.209504,2065.204402,11434.920655,-72.377174,-288.440047,-925.763743,-0.458958,-3.848836,-3.088237,DIRECT / RAW,1.000000,0.000000,0.000000,0,-0.014846820,0.042220364,0.706611136,0.706185327
516.283333,102879.063063,4769.647083,474.264655,14.462338,5.506587,17090.071497,4822008966833.637695,27299440.036149,3301666.172230,-185.833669,55824.770719,-598.811381,-0.014854031,0.042223267,0.706604851,0.706191290,-0.000644785,0.001676921,-0.002139347,1.000000,0.000000,0.000000,0.000000,1,1,1,-27408.160783,2056.730237,11430.761848,-72.004789,-291.216126,-921.717761,-0.458197,-3.848209,-3.088669,DIRECT / RAW,1.000000,0.000000,0.000000,0,-0.014854031,0.042223267,0.706604851,0.706191290
516.291667,102883.015226,4769.620081,474.287978,14.462256,5.506169,17085.615716,4822008966832.088867,27299905.242304,3301661.181921,-185.837487,55824.738650,-598.837119,-0.014861247,0.042226048,0.706598389,0.706197437,-0.000664131,0.001655828,-0.002200789,1.000000,0.000000,0.000000,0.000000,1,1,1,-27401.114848,2048.030889,11426.633119,-71.624645,-293.948789,-917.570991,-0.457416,-3.847582,-3.089098,DIRECT / RAW,1.000000,0.000000,0.000000,0,-0.014861247,0.042226048,0.706598389,0.706197437
516.300000,102886.967584,4769.593085,474.311298,14.462174,5.505762,17081.160929,4822008966830.540039,27300370.448193,3301656.191397,-185.841299,55824.706587,-598.862862,-0.014868468,0.042228706,0.706591752,0.706203767,-0.000683375,0.001634537,-0.002261954,1.000000,0.000000,0.000000,0.000000,1,1,1,-27394.071659,2039.107592,11422.534707,-71.236795,-296.637690,-913.324015,-0.456614,-3.846955,-3.089526,DIRECT / RAW,1.000000,0.000000,0.000000,0,-0.014868468,0.042228706,0.706591752,0.706203767
516.308333,102890.920136,4769.566094,474.334615,14.462092,5.505365,17076.707135,4822008966828.991211,27300835.653814,3301651.200658,-185.845104,55824.674529,-598.888608,-0.014875693,0.042231240,0.706584941,0.706210278,-0.000702515,0.001613052,-0.002322836,1.000000,0.000000,0.000000,0.000000,1,1,1,-27387.031178,2029.961605,11418.466844,-70.841290,-299.282487,-908.977423,-0.455792,-3.846329,-3.089953,DIRECT / RAW,1.000000,0.000000,0.000000,0,-0.014875693,0.042231240,0.706584941,0.706210278
516.316667,102894.872881,4769.539110,474.357929,14.462011,5.504978,17072.254336,4822008966827.442383,27301300.859168,3301646.209705,-185.848903,55824.642476,-598.914358,-0.014882921,0.042233651,0.706577956,0.706216971,-0.000721548,0.001591376,-0.002383428,1.000000,0.000000,0.000000,0.000000,1,1,1,-27379.993369,2020.594212,11414.429762,-70.438184,-301.882846,-904.531817,-0.454949,-3.845702,-3.090377,DIRECT / RAW,1.000000,0.000000,0.000000,0,-0.014882921,0.042233651,0.706577956,0.706216971
516.325000,102898.825820,4769.512131,474.381239,14.461929,5.504602,17067.802531,4822008966825.893555,27301766.064255,3301641.218538,-185.852694,55824.610429,-598.940111,-0.014890151,0.042235937,0.706570798,0.706223843,-0.000740473,0.001569512,-0.002443724,1.000000,0.000000,0.000000,0.000000,1,1,1,-27372.958191,2011.006716,11410.423684,-70.027530,-304.438441,-899.987809,-0.454087,-3.845076,-3.090800,DIRECT / RAW,1.000000,0.000000,0.000000,0,-0.014890151,0.042235937,0.706570798,0.706223843
516.333333,102902.778956,4769.485159,474.404547,14.461847,5.504236,17063.351717,4822008966824.344727,27302231.269075,3301636.227155,-185.856478,55824.578387,-598.965867,-0.014897381,0.042238100,0.706563468,0.706230895,-0.000759288,0.001547464,-0.002503717,1.000000,0.000000,0.000000,0.000000,1,1,1,-27365.925599,2001.200446,11406.448827,-69.609382,-306.948951,-895.346022,-0.453204,-3.844451,-3.091221,DIRECT / RAW,1.000000,0.000000,0.000000,0,-0.014897381,0.042238100,0.706563468,0.706230895
516.341667,102906.732284,4769.458192,474.427852,14.461765,5.503882,17058.901898,4822008966822.795898,27302696.473627,3301631.235559,-185.860255,55824.546349,-598.991628,-0.014904612,0.042240139,0.706555967,0.706238124,-0.000777989,0.001525234,-0.002563400,1.000000,0.000000,0.000000,0.000000,1,1,1,-27358.895560,1991.176753,11402.505410,-69.183797,-309.414062,-890.607087,-0.452301,-3.843825,-3.091641,DIRECT / RAW,1.000000,0.000000,0.000000,0,-0.014904612,0.042240139,0.706555967,0.706238124
516.350000,102910.685806,4769.431231,474.451153,14.461684,5.503537,17054.453071,4822008966821.247070,27303161.677913,3301626.243747,-185.864024,55824.514318,-599.017391,-0.014911842,0.042242053,0.706548296,0.706245532,-0.000796577,0.001502826,-0.002622767,1.000000,0.000000,0.000000,0.000000,1,1,1,-27351.868028,1980.937012,11398.593640,-68.750830,-311.833470,-885.771649,-0.451379,-3.843199,-3.092058,DIRECT / RAW,1.000000,0.000000,0.000000,0,-0.014911842,0.042242053,0.706548296,0.706245532
516.358333,102914.639524,4769.404276,474.474452,14.461602,5.503204,17050.005235,4822008966819.698242,27303626.881933,3301621.251721,-185.867785,55824.482291,-599.043158,-0.014919070,0.042243843,0.706540456,0.706253116,-0.000815047,0.001480244,-0.002681812,1.000000,0.000000,0.000000,0.000000,1,1,1,-27344.842961,1970.482619,11394.713722,-68.310538,-314.206873,-880.840360,-0.450437,-3.842574,-3.092474,DIRECT / RAW,1.000000,0.000000,0.000000,0,-0.014919070,0.042243843,0.706540456,0.706253116
516.366667,102918.593434,4769.377327,474.497747,14.461520,5.502882,17045.558394,4822008966818.149414,27304092.085685,3301616.259480,-185.871539,55824.450270,-599.068929,-0.014926296,0.042245508,0.706532447,0.706260875,-0.000833400,0.001457490,-0.002740528,1.000000,0.000000,0.000000,0.000000,1,1,1,-27337.820323,1959.814993,11390.865860,-67.862979,-316.533981,-875.813882,-0.449475,-3.841949,-3.092888,DIRECT / RAW,1.000000,0.000000,0.000000,0,-0.014926296,0.042245508,0.706532447,0.706260875
516.375000,102922.547540,4769.350384,474.521040,14.461438,5.502570,17041.112544,4822008966816.600586,27304557.289170,3301611.267024,-185.875284,55824.418253,-599.094703,-0.014933518,0.042247049,0.706524271,0.706268809,-0.000851632,0.001434568,-0.002798909,1.000000,0.000000,0.000000,0.000000,1,1,1,-27330.800065,1948.935575,11387.050246,-67.408211,-318.814507,-870.692889,-0.448494,-3.841324,-3.093300,DIRECT / RAW,1.000000,0.000000,0.000000,0,-0.014933518,0.042247049,0.706524271,0.706268809
516.383333,102926.501839,4769.323447,474.544330,14.461357,5.502270,17036.667686,4822008966815.051758,27305022.492389,3301606.274353,-185.879022,55824.386242,-599.120481,-0.014940735,0.042248464,0.706515929,0.706276917,-0.000869741,0.001411482,-0.002856948,1.000000,0.000000,0.000000,0.000000,1,1,1,-27323.782147,1937.845827,11383.267071,-66.946293,-321.048173,-865.478063,-0.447494,-3.840700,-3.093709,DIRECT / RAW,1.000000,0.000000,0.000000,0,-0.014940735,0.042248464,0.706515929,0.706276917
516.391667,102930.456332,4769.296516,474.567617,14.461275,5.501981,17032.223821,4822008966813.502930,27305487.695341,3301601.281468,-185.882751,55824.354236,-599.146262,-0.014947948,0.042249755,0.706507422,0.706285198,-0.000887727,0.001388235,-0.002914640,1.000000,0.000000,0.000000,0.000000,1,1,1,-27316.766524,1926.547234,11379.516523,-66.477285,-323.234709,-860.170096,-0.446474,-3.840076,-3.094117,DIRECT / RAW,1.000000,0.000000,0.000000,0,-0.014947948,0.042249755,0.706507422,0.706285198
516.400000,102934.411020,4769.269590,474.590901,14.461193,5.501703,17027.780947,4822008966811.954102,27305952.898026,3301596.288367,-185.886472,55824.322236,-599.172046,-0.014955154,0.042250920,0.706498750,0.706293650,-0.000905586,0.001364829,-0.002971977,1.000000,0.000000,0.000000,0.000000,1,1,1,-27309.753154,1915.041302,11375.798782,-66.001248,-325.373851,-854.769691,-0.445436,-3.839451,-3.094523,DIRECT / RAW,1.000000,0.000000,0.000000,0,-0.014955154,0.042250920,0.706498750,0.706293650
516.408333,102938.365901,4769.242671,474.614182,14.461112,5.501436,17023.339064,4822008966810.405273,27306418.100445,3301591.295052,-185.890184,55824.290240,-599.197834,-0.014962352,0.042251961,0.706489915,0.706302272,-0.000923318,0.001341270,-0.003028955,1.000000,0.000000,0.000000,0.000000,1,1,1,-27302.741993,1903.329559,11372.114023,-65.518243,-327.465341,-849.277558,-0.444378,-3.838828,-3.094928,DIRECT / RAW,1.000000,0.000000,0.000000,0,-0.014962352,0.042251961,0.706489915,0.706302272
516.416667,102942.320975,4769.215757,474.637460,14.461030,5.501181,17018.898174,4822008966808.856445,27306883.302597,3301586.301522,-185.893887,55824.258250,-599.223625,-0.014969543,0.042252876,0.706480918,0.706311065,-0.000940919,0.001317560,-0.003085567,1.000000,0.000000,0.000000,0.000000,1,1,1,-27295.732997,1891.413552,11368.462420,-65.028332,-329.508930,-843.694419,-0.443302,-3.838204,-3.095330,DIRECT / RAW,1.000000,0.000000,0.000000,0,-0.014969543,0.042252876,0.706480918,0.706311065
516.425000,102946.276244,4769.188849,474.660735,14.460949,5.500937,17014.458274,4822008966807.307617,27307348.504482,3301581.307776,-185.897581,55824.226265,-599.249419,-0.014976725,0.042253666,0.706471760,0.706320026,-0.000958389,0.001293702,-0.003141806,1.000000,0.000000,0.000000,0.000000,1,1,1,-27288.726118,1879.294852,11364.844136,-64.531577,-331.504377,-838.021004,-0.442207,-3.837580,-3.095730,DIRECT / RAW,1.000000,0.000000,0.000000,0,-0.014976725,0.042253666,0.706471760,0.706320026
516.433333,102950.231708,4769.161947,474.684008,14.460867,5.500705,17010.019366,4822008966805.758789,27307813.706102,3301576.313816,-185.901266,55824.194285,-599.275217,-0.014983897,0.042254331,0.706462441,0.706329154,-0.000975725,0.001269700,-0.003197667,1.000000,0.000000,0.000000,0.000000,1,1,1,-27281.721314,1866.975048,11361.259334,-64.028042,-333.451444,-832.258053,-0.441094,-3.836957,-3.096128,DIRECT / RAW,1.000000,0.000000,0.000000,0,-0.014983897,0.042254331,0.706462441,0.706329154
516.441667,102954.187365,4769.135051,474.707277,14.460785,5.500484,17005.581448,4822008966804.209961,27308278.907454,3301571.319641,-185.904942,55824.162311,-599.301018,-0.014991059,0.042254871,0.706452964,0.706338448,-0.000992926,0.001245559,-0.003253144,1.000000,0.000000,0.000000,0.000000,1,1,1,-27274.718538,1854.455751,11357.708170,-63.517792,-335.349906,-826.406313,-0.439963,-3.836334,-3.096524,DIRECT / RAW,1.000000,0.000000,0.000000,0,-0.014991059,0.042254871,0.706452964,0.706338448
516.450000,102958.143216,4769.108161,474.730544,14.460704,5.500275,17001.144520,4822008966802.661133,27308744.108540,3301566.325251,-185.908608,55824.130341,-599.326822,-0.014998208,0.042255286,0.706443329,0.706347908,-0.001009990,0.001221280,-0.003308231,1.000000,0.000000,0.000000,0.000000,1,1,1,-27267.717744,1841.738592,11354.190795,-63.000890,-337.199541,-820.466542,-0.438813,-3.835711,-3.096917,DIRECT / RAW,1.000000,0.000000,0.000000,0,-0.014998208,0.042255286,0.706443329,0.706347908
516.458333,102962.099261,4769.081277,474.753808,14.460622,5.500077,16996.708584,4822008966801.112305,27309209.309360,3301561.330646,-185.912265,55824.098377,-599.352630,-0.015005346,0.042255575,0.706433538,0.706357532,-0.001026915,0.001196868,-0.003362922,1.000000,0.000000,0.000000,0.000000,1,1,1,-27260.718888,1828.825221,11350.707356,-62.477403,-339.000135,-814.439507,-0.437645,-3.835089,-3.097309,DIRECT / RAW,1.000000,0.000000,0.000000,0,-0.015005346,0.042255575,0.706433538,0.706357532
516.466667,102966.055498,4769.054398,474.777069,14.460541,5.499892,16992.273638,4822008966799.563477,27309674.509914,3301556.335825,-185.915912,55824.066418,-599.378441,-0.015012470,0.042255740,0.706423591,0.706367319,-0.001043699,0.001172326,-0.003417211,1.000000,0.000000,0.000000,0.000000,1,1,1,-27253.721925,1815.717308,11347.257996,-61.947396,-340.751483,-808.325984,-0.436460,-3.834466,-3.097699,DIRECT / RAW,1.000000,0.000000,0.000000,0,-0.015012470,0.042255740,0.706423591,0.706367319
516.475000,102970.011932,4769.027525,474.800328,14.460459,5.499718,16987.839681,4822008966798.013672,27310139.710201,3301551.340790,-185.919549,55824.034464,-599.404255,-0.015019580,0.042255780,0.706413489,0.706377267,-0.001060341,0.001147658,-0.003471092,1.000000,0.000000,0.000000,0.000000,1,1,1,-27246.726802,1802.416545,11343.842847,-61.410935,-342.453386,-802.126756,-0.435257,-3.833844,-3.098086,DIRECT / RAW,1.000000,0.000000,0.000000,0,-0.015019580,0.042255780,0.706413489,0.706377267
516.483333,102973.968559,4769.000658,474.823583,14.460378,5.499556,16983.406714,4822008966796.463867,27310604.910222,3301546.345539,-185.923176,55824.002515,-599.430072,-0.015026675,0.042255694,0.706403235,0.706387376,-0.001076838,0.001122868,-0.003524561,1.000000,0.000000,0.000000,0.000000,1,1,1,-27239.733478,1788.924639,11340.462044,-60.868090,-344.105653,-795.842616,-0.434036,-3.833222,-3.098472,DIRECT / RAW,1.000000,0.000000,0.000000,0,-0.015026675,0.042255694,0.706403235,0.706387376
516.491667,102977.925379,4768.973797,474.846836,14.460296,5.499406,16978.974737,4822008966794.914062,27311070.109976,3301541.350074,-185.926793,55823.970572,-599.455893,-0.015033754,0.042255484,0.706392829,0.706397644,-0.001093190,0.001097959,-0.003577610,1.000000,0.000000,0.000000,0.000000,1,1,1,-27232.741907,1775.243322,11337.115713,-60.318926,-345.708099,-789.474366,-0.432798,-3.832600,-3.098855,DIRECT / RAW,1.000000,0.000000,0.000000,0,-0.015033754,0.042255484,0.706392829,0.706397644
516.500000,102981.882394,4768.946942,474.870086,14.460215,5.499268,16974.543749,4822008966793.364258,27311535.309465,3301536.354393,-185.930400,55823.938633,-599.481717,-0.015040816,0.042255150,0.706382272,0.706408071,-0.001109394,0.001072934,-0.003630235,1.000000,0.000000,0.000000,0.000000,1,1,1,-27225.752038,1761.374338,11333.803974,-59.763513,-347.260548,-783.022814,-0.431543,-3.831978,-3.099236,DIRECT / RAW,1.000000,0.000000,0.000000,0,-0.015040816,0.042255150,0.706382272,0.706408071
516.508333,102985.839602,4768.920092,474.893334,14.460134,5.499142,16970.113752,4822008966791.814453,27312000.508688,3301531.358496,-185.933996,55823.906700,-599.507544,-0.015047861,0.042254690,0.706371565,0.706418654,-0.001125449,0.001047798,-0.003682430,1.000000,0.000000,0.000000,0.000000,1,1,1,-27218.763828,1747.319456,11330.526945,-59.201920,-348.762831,-776.488779,-0.430270,-3.831357,-3.099615,DIRECT / RAW,1.000000,0.000000,0.000000,0,-0.015047861,0.042254690,0.706371565,0.706418654
516.516667,102989.797003,4768.893249,474.916579,14.460052,5.499028,16965.684744,4822008966790.264648,27312465.707644,3301526.362385,-185.937582,55823.874772,-599.533374,-0.015054888,0.042254107,0.706360711,0.706429393,-0.001141353,0.001022553,-0.003734189,1.000000,0.000000,0.000000,0.000000,1,1,1,-27211.777229,1733.080460,11327.284736,-58.634218,-350.214786,-769.873088,-0.428981,-3.830736,-3.099991,DIRECT / RAW,1.000000,0.000000,0.000000,0,-0.015054888,0.042254107,0.706360711,0.706429393
516.525000,102993.754599,4768.866411,474.939821,14.459971,5.498926,16961.256723,4822008966788.714844,27312930.906334,3301521.366058,-185.941157,55823.842849,-599.559207,-0.015061895,0.042253399,0.706349709,0.706440286,-0.001157105,0.000997204,-0.003785508,1.000000,0.000000,0.000000,0.000000,1,1,1,-27204.792190,1718.659152,11324.077453,-58.060475,-351.616258,-763.176573,-0.427675,-3.830115,-3.100366,DIRECT / RAW,1.000000,0.000000,0.000000,0,-0.015061895,0.042253399,0.706349709,0.706440286
516.533333,102997.712388,4768.839579,474.963060,14.459889,5.498836,16956.829693,4822008966787.165039,27313396.104759,3301516.369516,-185.944720,55823.810932,-599.585043,-0.015068882,0.042252567,0.706338562,0.706451332,-0.001172703,0.000971755,-0.003836380,1.000000,0.000000,0.000000,0.000000,1,1,1,-27197.808670,1704.057354,11320.905199,-57.480764,-352.967099,-756.400079,-0.426352,-3.829494,-3.100738,DIRECT / RAW,1.000000,0.000000,0.000000,0,-0.015068882,0.042252567,0.706338562,0.706451332
516.541667,103001.670371,4768.812752,474.986297,14.459808,5.498759,16952.403650,4822008966785.615234,27313861.302917,3301511.372759,-185.948273,55823.779019,-599.610883,-0.015075849,0.042251611,0.706327271,0.706462530,-0.001188144,0.000946208,-0.003886800,1.000000,0.000000,0.000000,0.000000,1,1,1,-27190.826616,1689.276904,11317.768068,-56.895155,-354.267172,-749.544453,-0.425014,-3.828873,-3.101108,DIRECT / RAW,1.000000,0.000000,0.000000,0,-0.015075849,0.042251611,0.706327271,0.706462530
516.550000,103005.628548,4768.785932,475.009532,14.459727,5.498694,16947.978596,4822008966784.065430,27314326.500810,3301506.375786,-185.951815,55823.747112,-599.636725,-0.015082793,0.042250532,0.706315837,0.706473878,-0.001203429,0.000920568,-0.003936763,1.000000,0.000000,0.000000,0.000000,1,1,1,-27183.845984,1674.319659,11314.666151,-56.303722,-355.516343,-742.610556,-0.423658,-3.828253,-3.101475,DIRECT / RAW,1.000000,0.000000,0.000000,0,-0.015082793,0.042250532,0.706315837,0.706473878
516.558333,103009.586917,4768.759117,475.032763,14.459645,5.498641,16943.554532,4822008966782.515625,27314791.698437,3301501.378598,-185.955346,55823.715210,-599.662571,-0.015089716,0.042249330,0.706304261,0.706485375,-0.001218555,0.000894838,-0.003986264,1.000000,0.000000,0.000000,0.000000,1,1,1,-27176.866727,1659.187493,11311.599537,-55.706536,-356.714487,-735.599252,-0.422287,-3.827633,-3.101840,DIRECT / RAW,1.000000,0.000000,0.000000,0,-0.015089716,0.042249330,0.706304261,0.706485375
516.566667,103013.545480,4768.732308,475.055992,14.459564,5.498601,16939.131455,4822008966780.965820,27315256.895798,3301496.381195,-185.958865,55823.683313,-599.688420,-0.015096615,0.042248004,0.706292545,0.706497020,-0.001233520,0.000869022,-0.004035298,1.000000,0.000000,0.000000,0.000000,1,1,1,-27169.888796,1643.882295,11308.568304,-55.103672,-357.861487,-728.511414,-0.420900,-3.827013,-3.102203,DIRECT / RAW,1.000000,0.000000,0.000000,0,-0.015096615,0.042248004,0.706292545,0.706497020
516.575000,103017.504238,4768.705505,475.079219,14.459483,5.498573,16934.709365,4822008966779.416016,27315722.092893,3301491.383576,-185.962372,55823.651421,-599.714271,-0.015103490,0.042246555,0.706280689,0.706508812,-0.001248323,0.000843124,-0.004083860,0.000000,0.000000,0.000000,0.000000,1,1,1,-27054.148157,1627.996617,11375.638496,-54.446070,3944.868211,-719.649113,-0.419207,-3.815208,-3.096588,DIRECT / RAW,0.980000,0.000000,0.000000,0,-0.015103490,0.042246555,0.706280689,0.706508812
516.583333,103021.463188,4768.678790,475.102516,14.459402,5.498407,16930.288853,4822008966777.866211,27316187.289723,3301486.385742,-185.965866,55823.619628,-599.740076,-0.015111257,0.042245902,0.706268677,0.706520693,-0.001262950,0.001129019,-0.004131830,0.000000,0.000000,0.000000,0.000000,1,1,1,-26941.275510,1611.960161,11442.553648,-53.785268,4247.213645,-710.789407,-0.417499,-3.803682,-3.090960,DIRECT / RAW,0.960000,0.000000,0.000000,0,-0.015111257,0.042245902,0.706268677,0.706520693
516.591667,103025.422334,4768.652162,475.125884,14.459321,5.498094,16925.869899,4822008966776.316406,27316652.486289,3301481.387693,-185.969345,55823.587931,-599.765834,-0.015119982,0.042246110,0.706256509,0.706532658,-0.001277396,0.001436824,-0.004179208,0.000000,0.000000,0.000000,0.000000,1,1,1,-26831.260923,1595.775052,11509.298466,-53.121341,4549.588486,-701.932558,-0.415778,-3.792433,-3.085319,DIRECT / RAW,0.940000,0.000000,0.000000,0,-0.015119982,0.042246110,0.706256509,0.706532658
516.600000,103029.381675,4768.625618,475.149321,14.459241,5.497623,16921.452486,4822008966774.766602,27317117.682592,3301476.389430,-185.972810,55823.556327,-599.791545,-0.015129726,0.042247243,0.706244184,0.706544701,-0.001291660,0.001766540,-0.004225993,0.000000,0.000000,0.000000,0.000000,1,1,1,-26724.099889,1579.443425,11575.844018,-52.454355,4851.951175,-693.078825,-0.414043,-3.781461,-3.079670,DIRECT / RAW,0.920000,0.000000,0.000000,0,-0.015129726,0.042247243,0.706244184,0.706544701
516.608333,103033.341211,4768.599156,475.172828,14.459160,5.496983,16917.036597,4822008966773.216797,27317582.878632,3301471.390953,-185.976260,55823.524815,-599.817209,-0.015140556,0.042249367,0.706231703,0.706556818,-0.001305740,0.002118168,-0.004272186,0.000000,0.000000,0.000000,0.000000,1,1,1,-26619.787681,1562.967402,11642.161406,-51.784375,5154.260232,-684.228425,-0.412294,-3.770765,-3.074013,DIRECT / RAW,0.900000,0.000000,0.000000,0,-0.015140556,0.042249367,0.706231703,0.706556818
516.616667,103037.300944,4768.572773,475.196403,14.459080,5.496164,16912.622214,4822008966771.666992,27318048.074410,3301466.392263,-185.979696,55823.493392,-599.842826,-0.015152533,0.042252547,0.706219066,0.706569001,-0.001319636,0.002491703,-0.004317786,0.000000,0.000000,0.000000,0.000000,1,1,1,-26518.319351,1546.349100,11708.221766,-51.111465,5456.474232,-675.381536,-0.410533,-3.760345,-3.068353,DIRECT / RAW,0.880000,0.000000,0.000000,0,-0.015152533,0.042252547,0.706219066,0.706569001
516.625000,103041.260875,4768.546468,475.220047,14.459001,5.495156,16908.209319,4822008966770.117188,27318513.269927,3301461.393360,-185.983117,55823.462055,-599.868396,-0.015165722,0.042256848,0.706206274,0.706581246,-0.001333347,0.002887139,-0.004362793,0.000000,0.000000,0.000000,0.000000,1,1,1,-26419.689731,1529.590624,11773.996263,-50.435688,5758.551796,-666.538299,-0.408758,-3.750199,-3.062690,DIRECT / RAW,0.860000,0.000000,0.000000,0,-0.015165722,0.042256848,0.706206274,0.706581246
516.633333,103045.221003,4768.520237,475.243758,14.458921,5.493947,16903.797898,4822008966768.567383,27318978.465184,3301456.394244,-185.986523,55823.430804,-599.893918,-0.015180187,0.042262335,0.706193327,0.706593548,-0.001346871,0.003304465,-0.004407207,0.000000,0.000000,0.000000,0.000000,1,1,1,-26323.893442,1512.694075,11839.456095,-49.757105,6060.451575,-657.698813,-0.406972,-3.740328,-3.057027,DIRECT / RAW,0.840000,0.000000,0.000000,0,-0.015180187,0.042262335,0.706193327,0.706593548
516.641667,103049.181329,4768.494080,475.267536,14.458842,5.492528,16899.387931,4822008966767.017578,27319443.660181,3301451.394916,-185.989915,55823.399634,-599.919393,-0.015195991,0.042269073,0.706180225,0.706605899,-0.001360208,0.003743668,-0.004451029,0.000000,0.000000,0.000000,0.000000,1,1,1,-26230.924883,1495.661541,11904.572489,-49.075776,6362.132230,-648.863144,-0.405173,-3.730731,-3.051368,DIRECT / RAW,0.820000,0.000000,0.000000,0,-0.015195991,0.042269073,0.706180225,0.706605899
516.650000,103053.141853,4768.467993,475.291379,14.458763,5.490888,16894.979402,4822008966765.467773,27319908.854919,3301446.395375,-185.993291,55823.368545,-599.944821,-0.015213198,0.042277127,0.706166969,0.706618295,-0.001373355,0.004204734,-0.004494258,0.000000,0.000000,0.000000,0.000000,1,1,1,-26140.778244,1478.495108,11969.316703,-48.391761,6663.552425,-640.031319,-0.403363,-3.721407,-3.045714,DIRECT / RAW,0.800000,0.000000,0.000000,0,-0.015213198,0.042277127,0.706166969,0.706618295
516.658333,103057.102577,4768.441974,475.315289,14.458684,5.489017,16890.572294,4822008966763.917969,27320374.049398,3301441.395624,-185.996652,55823.337533,-599.970202,-0.015231871,0.042286562,0.706153558,0.706630731,-0.001386313,0.004687642,-0.004536894,0.000000,0.000000,0.000000,0.000000,1,1,1,-26053.447502,1461.196849,12033.660023,-47.705115,6964.670806,-631.203331,-0.401541,-3.712355,-3.040069,DIRECT / RAW,0.780000,0.000000,0.000000,0,-0.015231871,0.042286562,0.706153558,0.706630731
516.666667,103061.063502,4768.416021,475.339263,14.458605,5.486904,16886.166589,4822008966762.368164,27320839.243620,3301436.395661,-185.999999,55823.306597,-599.995536,-0.015252075,0.042297442,0.706139993,0.706643199,-0.001399080,0.005192371,-0.004578938,0.000000,0.000000,0.000000,0.000000,1,1,1,-25968.926423,1443.768833,12097.573764,-47.015897,7265.445987,-622.379138,-0.399707,-3.703575,-3.034433,DIRECT / RAW,0.760000,0.000000,0.000000,0,-0.015252075,0.042297442,0.706139993,0.706643199
516.675000,103065.024624,4768.390132,475.363302,14.458527,5.484539,16881.762273,4822008966760.818359,27321304.437584,3301431.395487,-186.003329,55823.275734,-600.020823,-0.015273872,0.042309834,0.706126274,0.706655696,-0.001411655,0.005718896,-0.004620389,0.000000,0.000000,0.000000,0.000000,1,1,1,-25887.208573,1426.213122,12161.029272,-46.324160,7565.836540,-613.558664,-0.397863,-3.695067,-3.028811,DIRECT / RAW,0.740000,0.000000,0.000000,0,-0.015273872,0.042309834,0.706126274,0.706655696
516.683333,103068.985950,4768.364305,475.387404,14.458448,5.481912,16877.359326,4822008966759.268555,27321769.631292,3301426.395104,-186.006645,55823.244942,-600.046063,-0.015297326,0.042323800,0.706112401,0.706668214,-0.001424036,0.006267190,-0.004661248,-1.000000,0.000000,0.000000,0.000000,1,1,1,-25808.287301,1408.531769,12223.997915,-45.629958,11865.800972,-604.741801,-0.396009,-3.686828,-3.023204,DIRECT / RAW,0.720000,0.000000,0.000000,0,-0.015297326,0.042323800,0.706112401,0.706668214
516.691667,103072.947476,4768.338537,475.411568,14.458370,5.478873,16872.957734,4822008966757.718750,27322234.824744,3301421.394510,-186.009945,55823.214218,-600.071257,-0.015323353,0.042340260,0.706098356,0.706680698,-0.001436224,0.007127075,-0.004701514,-1.000000,0.000000,0.000000,0.000000,1,1,1,-25732.154737,1390.726498,12286.053083,-44.933397,12164.288901,-595.928855,-0.394145,-3.678859,-3.017647,DIRECT / RAW,0.700000,0.000000,0.000000,0,-0.015323353,0.042340260,0.706098356,0.706680698
516.700000,103076.909204,4768.312827,475.435794,14.458292,5.475413,16868.557480,4822008966756.168945,27322700.017940,3301416.393706,-186.013230,55823.183561,-600.096404,-0.015352015,0.042359278,0.706084139,0.706693141,-0.001448213,0.008008592,-0.004741185,-1.000000,0.000000,0.000000,0.000000,1,1,1,-25658.796990,1372.799364,12347.180303,-44.234535,12461.713455,-587.119600,-0.392272,-3.671157,-3.012143,DIRECT / RAW,0.680000,0.000000,0.000000,0,-0.015352015,0.042359278,0.706084139,0.706693141
516.708333,103080.871135,4768.287172,475.460081,14.458214,5.471521,16864.158548,4822008966754.619141,27323165.210882,3301411.392694,-186.016499,55823.152968,-600.121505,-0.015383376,0.042380918,0.706069751,0.706705538,-0.001460002,0.008911661,-0.004780262,-1.000000,0.000000,0.000000,0.000000,1,1,1,-25588.204607,1354.752431,12407.351681,-43.533419,12758.034540,-578.313799,-0.390391,-3.663722,-3.006694,DIRECT / RAW,0.660000,0.000000,0.000000,0,-0.015383376,0.042380918,0.706069751,0.706705538
516.716667,103084.833268,4768.261570,475.484428,14.458137,5.467186,16859.760922,4822008966753.069336,27323630.403569,3301406.391473,-186.019752,55823.122437,-600.146561,-0.015417498,0.042405243,0.706055190,0.706717882,-0.001471590,0.009836204,-0.004818743,-1.000000,0.000000,0.000000,0.000000,1,1,1,-25520.367961,1336.587754,12466.539370,-42.830097,13053.211854,-569.511185,-0.388502,-3.656553,-3.001301,DIRECT / RAW,0.640000,0.000000,0.000000,0,-0.015417498,0.042405243,0.706055190,0.706717882
516.725000,103088.795604,4768.236018,475.508833,14.458059,5.462400,16855.364586,4822008966751.519531,27324095.596002,3301401.390043,-186.022989,55823.091966,-600.171571,-0.015454443,0.042432318,0.706040457,0.706730169,-0.001482976,0.010782137,-0.004856629,-1.000000,0.000000,0.000000,0.000000,1,1,1,-25455.277254,1318.307388,12524.715572,-42.124614,13347.204879,-560.711464,-0.386605,-3.649648,-2.995968,DIRECT / RAW,0.620000,0.000000,0.000000,0,-0.015454443,0.042432318,0.706040457,0.706730169
516.733333,103092.758145,4768.210516,475.533295,14.457982,5.457151,16850.969526,4822008966749.969727,27324560.788181,3301396.388405,-186.026211,55823.061552,-600.196538,-0.015494273,0.042462206,0.706025553,0.706742391,-0.001494159,0.011749375,-0.004893921,-1.000000,0.000000,0.000000,0.000000,1,1,1,-25392.922519,1299.913381,12581.852535,-41.417017,13639.972867,-551.914317,-0.384700,-3.643006,-2.990697,DIRECT / RAW,0.600000,0.000000,0.000000,0,-0.015494273,0.042462206,0.706025553,0.706742391
516.741667,103096.720888,4768.185061,475.557814,14.457905,5.451429,16846.575725,4822008966748.419922,27325025.980108,3301391.386559,-186.029417,55823.031194,-600.221460,-0.015537049,0.042494970,0.706010476,0.706754544,-0.001505138,0.012737829,-0.004930617,-1.000000,0.000000,0.000000,0.000000,1,1,1,-25333.293630,1281.407779,12637.922556,-40.707349,13931.474828,-543.119399,-0.382788,-3.636627,-2.985490,DIRECT / RAW,0.580000,0.000000,0.000000,0,-0.015537049,0.042494970,0.706010476,0.706754544
516.750000,103100.683839,4768.159650,475.582388,14.457828,5.445225,16842.183166,4822008966746.870117,27325491.171782,3301386.384507,-186.032607,55823.000888,-600.246339,-0.015582834,0.042530672,0.705995227,0.706766621,-0.001515912,0.013747406,-0.004966717,-1.000000,0.000000,0.000000,0.000000,1,1,1,-25276.380294,1262.792623,12692.897977,-39.995654,14221.669516,-534.326343,-0.380869,-3.630508,-2.980350,DIRECT / RAW,0.560000,0.000000,0.000000,0,-0.015582834,0.042530672,0.705995227,0.706766621
516.758333,103104.646995,4768.134282,475.607017,14.457751,5.438528,16837.791836,4822008966745.319336,27325956.363204,3301381.382247,-186.035781,55822.970634,-600.271176,-0.015631687,0.042569376,0.705979806,0.706778616,-0.001526480,0.014778013,-0.005002222,-1.000000,0.000000,0.000000,0.000000,1,1,1,-25222.172069,1244.069953,12746.751195,-39.281973,14510.515426,-525.534756,-0.378943,-3.624649,-2.975280,DIRECT / RAW,0.540000,0.000000,0.000000,0,-0.015631687,0.042569376,0.705979806,0.706778616
516.766667,103108.610355,4768.108955,475.631698,14.457674,5.431328,16833.401721,4822008966743.768555,27326421.554374,3301376.379780,-186.038938,55822.940429,-600.295970,-0.015683670,0.042611144,0.705964212,0.706790524,-0.001536841,0.015829552,-0.005037132,-1.000000,0.000000,0.000000,0.000000,1,1,1,-25170.658360,1225.241804,12799.454657,-38.566349,14797.970775,-516.744225,-0.377011,-3.619049,-2.970281,DIRECT / RAW,0.520000,0.000000,0.000000,0,-0.015683670,0.042611144,0.705964212,0.706790524
516.775000,103112.573923,4768.083666,475.656431,14.457597,5.423615,16829.012802,4822008966742.217773,27326886.745293,3301371.377108,-186.042080,55822.910270,-600.320722,-0.015738844,0.042656037,0.705948445,0.706802338,-0.001546994,0.016901921,-0.005071445,-1.000000,0.000000,0.000000,0.000000,1,1,1,-25121.828419,1206.310210,12850.980858,-37.848821,15083.993496,-507.954314,-0.375072,-3.613707,-2.965355,DIRECT / RAW,0.500000,0.000000,0.000000,0,-0.015738844,0.042656037,0.705948445,0.706802338
516.783333,103116.537698,4768.058415,475.681215,14.457521,5.415380,16824.625066,4822008966740.666992,27327351.935961,3301366.374229,-186.045206,55822.880156,-600.345433,-0.015797268,0.042704118,0.705932504,0.706814052,-0.001556938,0.017995018,-0.005105162,-1.000000,0.000000,0.000000,0.000000,1,1,1,-25075.671357,1187.277200,12901.302347,-37.129429,15368.541228,-499.164568,-0.373128,-3.608621,-2.960507,DIRECT / RAW,0.480000,0.000000,0.000000,0,-0.015797268,0.042704118,0.705932504,0.706814052
516.791667,103120.501678,4768.033197,475.706048,14.457444,5.406613,16820.238501,4822008966739.116211,27327817.126379,3301361.371145,-186.048315,55822.850084,-600.370104,-0.015859002,0.042755448,0.705916390,0.706825660,-0.001566672,0.019108734,-0.005138283,-1.000000,0.000000,0.000000,0.000000,1,1,1,-25032.176151,1168.144805,12950.391729,-36.408211,15651.571312,-490.374513,-0.371179,-3.603790,-2.955737,DIRECT / RAW,0.460000,0.000000,0.000000,0,-0.015859002,0.042755448,0.705916390,0.706825660
516.800000,103124.465867,4768.008013,475.730929,14.457368,5.397304,16815.853088,4822008966737.565430,27328282.316546,3301356.367855,-186.051408,55822.820052,-600.394735,-0.015924106,0.042810088,0.705900102,0.706837156,-0.001576195,0.020242961,-0.005170807,-1.000000,0.000000,0.000000,0.000000,1,1,1,-24991.331630,1148.915050,12998.221661,-35.685207,15933.040768,-481.583655,-0.369224,-3.599213,-2.951048,DIRECT / RAW,0.440000,0.000000,0.000000,0,-0.015924106,0.042810088,0.705900102,0.706837156
516.808333,103128.430263,4767.982859,475.755857,14.457292,5.387443,16811.468815,4822008966736.014648,27328747.506463,3301351.364361,-186.054485,55822.790059,-600.419327,-0.015992639,0.042868098,0.705883640,0.706848533,-0.001585506,0.021397585,-0.005202734,-1.000000,0.000000,0.000000,0.000000,1,1,1,-24953.126498,1129.589961,13044.764858,-34.960453,16212.906303,-472.791485,-0.367264,-3.594889,-2.946443,DIRECT / RAW,0.420000,0.000000,0.000000,0,-0.015992639,0.042868098,0.705883640,0.706848533
516.816667,103132.394866,4767.957734,475.780832,14.457216,5.377020,16807.085668,4822008966734.463867,27329212.696130,3301346.360662,-186.057546,55822.760101,-600.443881,-0.016064661,0.042929540,0.705867002,0.706859786,-0.001594605,0.022572489,-0.005234063,-1.000000,0.000000,0.000000,0.000000,1,1,1,-24917.549333,1110.171563,13089.994094,-34.233985,16491.124294,-463.997476,-0.365300,-3.590816,-2.941924,DIRECT / RAW,0.400000,0.000000,0.000000,0,-0.016064661,0.042929540,0.705867002,0.706859786
516.825000,103136.359679,4767.932636,475.805850,14.457139,5.366026,16802.703630,4822008966732.913086,27329677.885549,3301341.356759,-186.060590,55822.730178,-600.468397,-0.016140228,0.042994472,0.705850188,0.706870908,-0.001603490,0.023767555,-0.005264795,-1.000000,0.000000,0.000000,0.000000,1,1,1,-24884.588583,1090.661879,13133.882201,-33.505840,16767.650784,-455.201085,-0.363331,-3.586994,-2.937492,DIRECT / RAW,0.380000,0.000000,0.000000,0,-0.016140228,0.042994472,0.705850188,0.706870908
