t_s,altitude_m,relative_speed_mps,vertical_speed_mps,mach,aoa_deg,q_pa,pos_x_m,pos_y_m,pos_z_m,vel_x_mps,vel_y_mps,vel_z_mps,quat_x,quat_y,quat_z,quat_w,omega_x_rps,omega_y_rps,omega_z_rps,pitch_cmd,yaw_cmd,roll_cmd,throttle,engine,sas,rcs,force_x_n,force_y_n,force_z_n,moment_x_nm,moment_y_nm,moment_z_nm,accel_x_mps2,accel_y_mps2,accel_z_mps2
0.000000,500.000000,180.011111,-2.000000,0.532770,8.636594,20808.533519,4822009011887.997070,0.000000,3200500.000000,0.000000,51310.632931,238.700722,0.049325276,-0.049325276,0.705384305,0.705384305,0.000000000,0.000000000,0.000000000,0.000000,0.000000,0.000000,1.000000,1,1,1,254751.320124,32920.494255,132417.159509,-5096.877736,118910.854891,-100059.371667,-3.538307,22.925803,11.271326
0.007047,499.986466,180.171790,-1.920503,0.533239,8.607833,20845.142586,4822009011887.997070,361.573113,3200501.682618,-0.024933,51310.794482,238.780148,0.049305267,-0.049309066,0.705371350,0.705399791,-0.001158590,0.007286367,-0.005640728,0.000000,0.000000,0.000000,1.000000,1,1,1,254649.361341,32818.354885,132282.801373,-4628.162284,111231.047989,-94981.431230,-3.527407,22.918704,11.255706
0.013792,499.974025,180.325578,-1.844515,0.535011,8.577866,20983.927778,4822009011887.997070,707.663261,3200503.293692,-0.048726,51310.949068,238.856067,0.049269053,-0.049279573,0.705347674,0.705428057,-0.002165493,0.013810304,-0.010765855,0.000000,0.000000,0.000000,1.000000,1,1,1,241029.183580,-8762.807498,59194.006643,2395.870244,155116.198744,-45976.551812,0.556042,22.596339,3.965300
0.037736,499.933652,180.868619,-1.662283,0.535258,8.473574,21003.390978,4822009011887.995117,1936.256782,3200509.016625,-0.084129,51311.493893,239.038054,0.048977316,-0.049018490,0.705182455,0.705631713,-0.002863307,0.040805009,-0.023808699,0.000000,0.000000,0.000000,1.000000,1,1,1,254154.658278,32149.869618,131545.994828,-3773.547645,74915.789162,-76960.371525,-3.448379,22.896820,11.157320
0.056964,499.905817,181.307057,-1.447550,0.536511,8.345760,21101.873108,4822009011887.992188,2922.889639,3200513.617006,-0.150434,51311.934156,239.252588,0.048597269,-0.048675132,0.704963164,0.705900825,-0.005197871,0.053332089,-0.035645625,0.000000,0.000000,0.000000,1.000000,1,1,1,253648.785817,31319.584262,130390.631851,-2677.860504,58409.095083,-63742.635991,-3.351213,22.881912,11.014815
0.076339,499.881907,181.748870,-1.233931,0.537766,8.207265,21200.729594,4822009011887.988281,3917.094487,3200518.256788,-0.215366,51312.377505,239.466006,0.048140349,-0.048268499,0.704678160,0.706244539,-0.006859698,0.063175958,-0.045522398,0.000000,0.000000,0.000000,1.000000,1,1,1,253093.544374,30324.713984,129047.544317,-1791.745577,43881.241365,-51441.471100,-3.233478,22.868034,10.848912
0.095016,499.862647,182.174772,-1.031110,0.553283,8.067422,22441.897609,4822009011887.983398,4875.465075,3200522.733086,-0.275758,51312.804612,239.668632,0.047649399,-0.047832999,0.704355067,0.706629662,-0.007921870,0.070307431,-0.053203148,0.000000,0.000000,0.000000,1.000000,1,1,1,248832.303517,-76815.483124,-66524.257450,15049.239019,175446.723218,68139.515387,7.315779,25.020249,-8.254707
0.115592,499.842818,182.667114,-1.006011,0.558778,7.963165,22889.931007,4822009011887.978516,5931.292199,3200527.665928,-0.232441,51313.297162,239.693513,0.047046893,-0.047259593,0.704000921,0.707061401,-0.003270904,0.088851144,-0.050929559,0.000000,0.000000,0.000000,1.000000,1,1,1,252219.984814,-70142.544160,-107541.504211,12486.709889,182202.452671,64020.465724,6.692143,25.870192,-12.242752
0.135671,499.823515,183.156316,-1.022730,0.569454,7.855088,23772.941079,4822009011887.973633,6961.586224,3200532.479474,-0.195355,51313.786320,239.676582,0.046366709,-0.046557186,0.703680419,0.707471855,-0.000054788,0.105553315,-0.048872831,0.000000,0.000000,0.000000,1.000000,1,1,1,265071.560631,-74666.628631,-170707.113490,12200.728070,205010.845759,73342.522502,7.173027,27.898839,-18.276611
0.157253,499.801745,183.704467,-1.107229,0.543423,7.739190,21649.240148,4822009011887.968750,8069.045298,3200537.652457,-0.149101,51314.334024,239.591851,0.045531692,-0.045656149,0.703364504,0.707898831,0.002942587,0.123629171,-0.045656498,0.000000,0.000000,0.000000,1.000000,1,1,1,251241.742146,26564.946783,125148.768198,-4692.238535,-36133.122632,-34365.395136,-2.765048,22.863915,10.277589
0.176724,499.784085,184.148577,-0.906904,0.574132,7.544714,24165.240134,4822009011887.964844,9068.191299,3200542.321427,-0.202939,51314.779205,239.791965,0.044749891,-0.044823448,0.703064483,0.708299822,0.000030872,0.117509249,-0.051014265,0.000000,0.000000,0.000000,1.000000,1,1,1,269013.030403,-74566.994089,-188234.996293,12162.509902,188667.468172,82969.232876,7.219141,28.418769,-20.068932
0.197252,499.765459,184.675386,-1.010177,0.611149,7.431617,27381.842192,4822009011887.960938,10121.619858,3200547.244011,-0.155666,51315.305518,239.688469,0.043895668,-0.043903180,0.702759571,0.708713388,0.002972832,0.130912287,-0.046242160,0.000000,0.000000,0.000000,1.000000,1,1,1,336576.011641,-105574.828174,-352392.204698,17082.297140,270878.136719,135146.910949,10.356998,36.875855,-35.324579
0.225739,499.733510,185.528605,-1.372963,0.604822,7.312342,26817.872509,4822009011887.957031,11583.450786,3200554.068816,-0.043643,51316.156436,239.325367,0.042564740,-0.042409342,0.702431663,0.709210441,0.008864616,0.157293684,-0.033638685,0.000000,0.000000,0.000000,1.000000,1,1,1,318608.147498,-52956.630394,-336581.803219,5943.541973,220399.536281,61181.418781,5.201926,34.866060,-34.137719
0.248728,499.699999,186.194707,-1.653777,0.609856,7.187242,27266.182604,4822009011887.956055,12763.146156,3200559.568611,-0.010851,51316.820258,239.044296,0.041358234,-0.041034794,0.702238278,0.709554115,0.008678691,0.170108145,-0.030763340,0.000000,0.000000,0.000000,1.000000,1,1,1,326550.840773,-45082.676502,-355938.952452,4672.660995,212777.350601,52589.091957,4.454080,35.753063,-36.063893
0.270830,499.661366,186.845755,-1.947072,0.552705,7.059900,22395.284046,4822009011887.956055,13897.375399,3200564.849954,0.013896,51317.468484,238.750751,0.040110669,-0.039631944,0.702075172,0.709866816,0.008104190,0.180121425,-0.028639294,0.000000,0.000000,0.000000,1.000000,1,1,1,248604.272643,20812.014786,119281.082118,-5976.312063,-112686.486097,-27865.546639,-2.081372,22.922073,9.306271
0.289778,499.627817,187.278286,-1.770524,0.620662,6.829024,28241.137150,4822009011887.956055,14869.735547,3200569.377091,-0.025541,51317.902806,238.927084,0.039078576,-0.038503119,0.701916251,0.710143613,0.004482887,0.161551236,-0.032881802,0.000000,0.000000,0.000000,1.000000,1,1,1,347108.279365,-62205.570072,-392797.180969,9134.852575,222541.174836,84682.658551,6.190226,37.903756,-39.690791
0.314954,499.579781,188.047998,-2.157650,0.609207,6.712312,27208.348034,4822009011887.955078,16161.739610,3200575.388908,0.027917,51318.668468,238.539668,0.037710933,-0.037009061,0.701723609,0.710487291,0.006357465,0.173178812,-0.026222384,0.000000,0.000000,0.000000,1.000000,1,1,1,319375.775606,-35531.467382,-345492.396920,3742.048811,191697.452837,42664.759721,3.556910,34.612992,-35.503889
0.335798,499.532853,188.651189,-2.436349,0.611212,6.590615,27387.880740,4822009011887.955078,17231.413621,3200580.358973,0.046166,51319.268279,238.260727,0.036510345,-0.035694445,0.701597339,0.710741919,0.005932326,0.179593163,-0.024470160,0.000000,0.000000,0.000000,1.000000,1,1,1,321656.466229,-31585.986834,-351702.072526,3230.247390,190454.697070,37959.917608,3.183754,34.790592,-36.210777
0.356006,499.481667,189.238460,-2.715714,0.559781,6.467853,22972.718921,4822009011887.956055,18268.503582,3200585.171894,0.061327,51319.851768,237.981124,0.035299584,-0.034379125,0.701486718,0.710977074,0.005455127,0.185389334,-0.023053025,0.000000,0.000000,0.000000,1.000000,1,1,1,246430.418714,16158.378600,112866.122150,-4456.420209,-127919.148546,-18683.742057,-1.562342,22.972268,8.331905
0.375603,499.431649,189.686314,-2.552203,0.561097,6.232940,23080.897802,4822009011887.957031,19274.238508,3200589.838861,0.030710,51320.301961,238.144406,0.034202420,-0.033212117,0.701362175,0.711209006,0.002664938,0.163588546,-0.025995538,0.000000,0.000000,0.000000,1.000000,1,1,1,245649.840480,14940.796938,109407.547216,-3439.762459,-131694.402561,-10995.074668,-1.430973,22.970155,7.913317
0.393959,499.387469,190.106001,-2.406730,0.562325,6.037599,23182.131464,4822009011887.957031,20216.276504,3200594.212882,0.004443,51320.723599,238.289662,0.033297359,-0.032268617,0.701226245,0.711429389,0.000653347,0.142566906,-0.027615511,0.000000,0.000000,0.000000,1.000000,1,1,1,245009.437889,13877.339072,106536.758853,-2633.516139,-134620.326762,-4204.545648,-1.315155,22.966643,7.566993
0.413246,499.343868,190.547115,-2.260558,0.563613,5.859557,23288.484974,4822009011887.957031,21206.096345,3200598.811536,-0.020922,51321.166551,238.435605,0.032488150,-0.031442817,0.701070062,0.711657669,-0.000960612,0.119989299,-0.028265456,0.000000,0.000000,0.000000,1.000000,1,1,1,244429.368292,12861.421255,103941.471034,-1904.838819,-137022.024102,2589.480694,-1.203401,22.961212,7.255113
0.432257,499.303517,190.982011,-2.122403,0.579415,5.710727,24612.682436,4822009011887.956055,22181.784064,3200603.347116,-0.043800,51321.603072,238.573534,0.031833535,-0.030789777,0.700910632,0.711872813,-0.002107985,0.097337898,-0.027870149,0.000000,0.000000,0.000000,1.000000,1,1,1,251701.999479,-41436.206373,-143319.256682,6969.167989,58512.182449,61344.333603,4.130845,25.745720,-16.904825
0.452732,499.259759,191.481718,-2.223559,0.580211,5.635001,24680.466611,4822009011887.955078,23232.597389,3200608.231586,-0.012822,51322.101636,238.472131,0.031192528,-0.030142721,0.700757365,0.712079741,-0.000223473,0.091630985,-0.022395872,0.000000,0.000000,0.000000,1.000000,1,1,1,250493.532795,-34399.524842,-141371.823970,5205.027119,57041.924323,51166.754963,3.450580,25.598903,-16.770115
0.474527,499.210943,192.012101,-2.331041,0.567912,5.561968,23645.263529,4822009011887.955078,24351.164344,3200613.428698,0.013563,51322.630749,238.364384,0.030567194,-0.029493494,0.700631025,0.712258343,0.000942767,0.085470230,-0.017638059,0.000000,0.000000,0.000000,1.000000,1,1,1,243400.628901,10707.338108,100388.197472,-2290.252599,-120998.127592,1738.055014,-0.958786,22.955231,6.773125
0.494073,499.167970,192.459179,-2.198415,0.575089,5.448335,24246.736421,4822009011887.955078,25354.324505,3200618.090353,-0.005177,51323.079431,238.496771,0.030124352,-0.029039873,0.700529229,0.712395963,-0.000491768,0.064904506,-0.017367342,0.000000,0.000000,0.000000,1.000000,1,1,1,239002.172938,-23992.667141,-62483.154695,3638.548111,13864.182090,38274.113260,2.434558,23.816092,-9.225344
0.515073,499.122243,192.950476,-2.225847,0.570673,5.387742,23875.878245,4822009011887.955078,26432.099923,3200623.099142,0.011021,51323.570424,238.469081,0.029715196,-0.028620518,0.700430997,0.712526695,0.000188528,0.056463397,-0.013850694,0.000000,0.000000,0.000000,1.000000,1,1,1,242801.282563,9666.722363,98283.985604,-1848.121505,-101850.425206,2288.862773,-0.841933,22.941182,6.506427
0.531443,499.087551,193.324789,-2.119135,0.571773,5.315597,23968.079552,4822009011887.955078,27272.269876,3200627.004610,-0.002761,51323.945970,238.575590,0.029473214,-0.028376969,0.700361945,0.712614358,-0.000783266,0.041965228,-0.013551063,0.000000,0.000000,0.000000,1.000000,1,1,1,242556.763847,9298.275453,97366.076032,-1416.218886,-91063.870524,3314.216254,-0.801048,22.932083,6.398936
0.551141,499.048292,193.775151,-1.992838,0.573094,5.247182,24079.023380,4822009011887.955078,28283.307552,3200631.706786,-0.018541,51324.397708,238.701643,0.029283183,-0.028199708,0.700277656,0.712712057,-0.001679589,0.026366579,-0.013028335,0.000000,0.000000,0.000000,1.000000,1,1,1,242313.423903,8940.232511,96584.089668,-1000.168064,-78979.344654,4165.835375,-0.760567,22.919998,6.308577
0.570964,499.011270,194.228204,-1.867538,0.574421,5.194506,24190.735347,4822009011887.954102,29300.693795,3200636.440925,-0.033617,51324.852039,238.826695,0.029181757,-0.028122112,0.700193339,0.712802118,-0.002316935,0.012753307,-0.012367127,0.000000,0.000000,0.000000,1.000000,1,1,1,242112.741691,8658.435559,96085.071810,-684.496224,-68037.357514,4680.930980,-0.727905,22.906851,6.252334
0.590834,498.976634,194.682173,-1.743055,0.575750,5.155591,24302.833187,4822009011887.953125,30320.512160,3200641.188808,-0.048080,51325.307192,238.950927,0.029158552,-0.028130835,0.700110547,0.712884042,-0.002754658,0.000998279,-0.011622663,0.000000,0.000000,0.000000,1.000000,1,1,1,241948.941689,8446.528177,95835.730157,-448.568053,-58210.266938,4921.183904,-0.702469,22.892782,6.226128
0.609594,498.946127,195.110611,-1.626014,0.578061,5.129357,24498.341184,4822009011887.952148,31283.392415,3200645.673763,-0.061259,51325.736664,239.067730,0.029196991,-0.028204550,0.700034638,0.712954098,-0.003026046,-0.008497190,-0.010884050,0.000000,0.000000,0.000000,1.000000,1,1,1,247718.928543,-12805.448656,132522.251979,3013.004218,-75847.955976,26785.334484,1.399913,23.122926,9.859145
0.630312,498.914837,195.585813,-1.459140,0.578398,5.098914,24526.970921,4822009011887.950195,32346.759673,3200650.629130,-0.053846,51326.213193,239.234340,0.029299408,-0.028341921,0.699959738,0.713017984,-0.002114950,-0.019828762,-0.008254351,0.000000,0.000000,0.000000,1.000000,1,1,1,241680.848265,8296.366803,95715.008567,-597.519670,-39827.082792,3048.420122,-0.679915,22.861816,6.223504
0.649718,498.888866,196.028598,-1.338113,0.582430,5.092205,24870.142847,4822009011887.949219,33342.833943,3200655.274192,-0.067040,51326.656863,239.355116,0.029464640,-0.028540305,0.699897641,0.713064217,-0.002490033,-0.026549415,-0.007781623,0.000000,0.000000,0.000000,1.000000,1,1,1,257150.502090,-6802.130533,178193.537967,1964.894419,-89875.014976,18680.157343,0.837172,23.671108,14.422508
0.670097,498.864399,196.501232,-1.127032,0.585218,5.068916,25108.843830,4822009011887.947266,34388.795601,3200660.154661,-0.065392,51327.130833,239.565934,0.029688606,-0.028797944,0.699837586,0.713103512,-0.001982667,-0.037459546,-0.006023334,0.000000,0.000000,0.000000,1.000000,1,1,1,263840.438012,-3308.193308,203932.741362,1264.548338,-95985.023928,13592.260596,0.510261,24.106196,17.010799
0.690133,498.844789,196.970205,-0.893364,0.589229,5.050355,25454.300790,4822009011887.945312,35417.228312,3200664.957739,-0.067117,51327.601016,239.799340,0.029981978,-0.029121879,0.699785617,0.713129082,-0.001767474,-0.047812681,-0.004824329,0.000000,0.000000,0.000000,1.000000,1,1,1,275218.747737,-1848.913358,240469.444294,990.837501,-107840.561759,10988.284412,0.391221,24.896811,20.698541
0.711833,498.829331,197.486627,-0.599947,0.592012,5.031900,25695.313848,4822009011887.943359,36531.011921,3200670.165152,-0.070421,51328.118562,240.092473,0.030379833,-0.029552845,0.699733771,0.713145388,-0.001657342,-0.059174123,-0.003860008,0.000000,0.000000,0.000000,1.000000,1,1,1,280950.150126,798.596114,257279.523027,551.819097,-105852.929716,6964.665035,0.143743,25.289048,22.419753
0.731864,498.820842,197.967385,-0.311407,0.595590,5.021362,26006.902958,4822009011887.941406,37559.190905,3200674.978055,-0.076168,51328.599997,240.380747,0.030815633,-0.030020518,0.699687425,0.713152629,-0.001712947,-0.068475084,-0.003394617,0.000000,0.000000,0.000000,1.000000,1,1,1,290092.855506,1699.764688,281310.136388,455.672061,-108914.556512,5205.444434,0.073530,25.941744,24.879255
0.752066,498.818402,198.458992,0.005011,0.599617,5.013748,26359.742557,4822009011887.939453,38596.118861,3200679.837983,-0.082929,51329.091863,240.696895,0.031315250,-0.030554631,0.699639944,0.713154765,-0.001797131,-0.077240582,-0.003145911,0.000000,0.000000,0.000000,1.000000,1,1,1,300764.484437,2141.401545,306649.522104,446.529630,-112035.157113,4042.162179,0.050815,26.718707,27.486586
0.772706,498.822818,198.969589,0.355926,0.588352,5.008071,25378.625586,4822009011887.937500,39655.598526,3200684.810462,-0.090383,51329.602159,241.047532,0.031883573,-0.031160633,0.699589275,0.713153069,-0.001880913,-0.085589368,-0.003063927,0.000000,0.000000,0.000000,1.000000,1,1,1,241013.305295,9722.993175,97509.918057,-681.861063,28828.097774,-3932.450238,-0.808423,22.696941,6.567506
0.791177,498.831635,199.389057,0.477481,0.602700,5.059099,26631.469130,4822009011887.935547,40603.697317,3200689.265007,-0.105315,51330.021386,241.168838,0.032392611,-0.031707551,0.699540561,0.713153808,-0.002288747,-0.080959075,-0.003647005,0.000000,0.000000,0.000000,1.000000,1,1,1,303914.302846,1591.980783,315277.483517,797.113824,-107072.790399,4331.113449,0.110360,26.844170,28.441866
0.811624,498.845784,199.896474,0.837495,0.591079,5.053925,25614.396909,4822009011887.933594,41653.228629,3200694.200469,-0.112734,51330.527639,241.528574,0.032972453,-0.032330208,0.699484220,0.713154542,-0.002203534,-0.088046983,-0.003629628,0.000000,0.000000,0.000000,1.000000,1,1,1,241025.056414,10388.763663,99429.689534,-581.324936,36055.381447,-4929.921822,-0.871668,22.644769,6.827552
0.830727,498.864277,200.329635,0.968185,0.592352,5.106950,25724.801726,4822009011887.930664,42633.821647,3200698.816965,-0.129386,51330.960230,241.659003,0.033504579,-0.032904906,0.699427496,0.713159091,-0.002563737,-0.082057481,-0.004385542,0.000000,0.000000,0.000000,1.000000,1,1,1,241118.351295,10683.477895,100980.197855,-444.871739,33418.107484,-4916.723705,-0.899181,22.621568,7.015216
0.850402,498.886045,200.775419,1.106482,0.593661,5.154238,25838.540944,4822009011887.927734,43643.789306,3200703.574426,-0.147078,51331.405319,241.797031,0.034011533,-0.033458383,0.699364996,0.713170635,-0.002848378,-0.076339772,-0.005162233,0.000000,0.000000,0.000000,1.000000,1,1,1,241196.949497,10943.941639,102442.967913,-327.473503,30813.441634,-4773.842937,-0.923029,22.597977,7.192640
0.870240,498.910829,201.224527,1.249442,0.594978,5.195050,25953.276261,4822009011887.924805,44662.099704,3200708.373975,-0.165389,51331.853613,241.939717,0.034484530,-0.033980022,0.699297948,0.713189004,-0.003060459,-0.071024138,-0.005922752,0.000000,0.000000,0.000000,1.000000,1,1,1,241259.164678,11165.611407,103791.196880,-229.188115,28316.991979,-4524.031347,-0.942782,22.574491,7.356574
0.889888,498.938221,201.669001,1.394258,0.596280,5.229290,26066.996312,4822009011887.920898,45670.687992,3200713.130500,-0.183913,51332.297162,242.084260,0.034918954,-0.034463535,0.699227805,0.713213438,-0.003208388,-0.066185773,-0.006636735,0.000000,0.000000,0.000000,1.000000,1,1,1,241304.913448,11347.944455,105011.662194,-148.505732,25981.928677,-4196.139705,-0.958429,22.551512,7.505386
0.908539,498.966837,202.090580,1.534494,0.604778,5.256666,26815.221805,4822009011887.916992,46628.045424,3200717.647992,-0.201788,51332.717748,242.224236,0.035303409,-0.034894841,0.699158125,0.713241849,-0.003300374,-0.061971847,-0.007265462,0.000000,0.000000,0.000000,1.000000,1,1,1,284670.405811,-4453.285179,275805.924468,2456.148631,-86117.367442,13231.057824,0.671440,25.057457,24.627882
0.929072,499.002554,202.581890,1.866018,0.598959,5.238974,26301.574943,4822009011887.913086,47682.079035,3200722.625842,-0.204853,51333.206310,242.555470,0.035741615,-0.035379587,0.699082303,0.713270464,-0.002518119,-0.067525557,-0.006496282,0.000000,0.000000,0.000000,1.000000,1,1,1,241229.085139,11730.691245,106289.843885,-378.101002,30347.089706,-4866.020098,-0.991309,22.501470,7.684735
0.947764,499.040122,203.003835,2.009927,0.607278,5.266569,27037.224412,4822009011887.909180,48641.621333,3200727.162441,-0.223383,51333.626913,242.699115,0.036134636,-0.035812389,0.699012193,0.713297775,-0.002748750,-0.062592645,-0.007226073,0.000000,0.000000,0.000000,1.000000,1,1,1,285088.189289,-4084.425368,278731.986444,2283.241839,-83456.727290,12634.518200,0.639478,24.995649,24.979618
0.968299,499.085681,203.494856,2.346964,0.610095,5.248258,27288.623928,4822009011887.905273,49695.784607,3200732.150643,-0.227116,51334.114371,243.035859,0.036577484,-0.036295080,0.698935651,0.713325809,-0.002084265,-0.067578274,-0.006553620,0.000000,0.000000,0.000000,1.000000,1,1,1,291865.199708,-3051.857901,296572.627506,1915.189963,-87291.860462,10815.996766,0.552552,25.435736,26.822656
0.989455,499.140098,204.005889,2.714195,0.612278,5.229897,27484.098925,4822009011887.899414,50781.807725,3200737.297027,-0.232105,51334.620906,243.402786,0.037071875,-0.036823804,0.698858782,0.713348503,-0.001611904,-0.072524151,-0.006094296,0.000000,0.000000,0.000000,1.000000,1,1,1,295676.583255,-1697.838292,306619.861868,1554.770592,-86571.682356,8671.958891,0.428610,25.659019,27.879422
1.010269,499.201330,204.511460,3.087056,0.604639,5.214279,26802.468572,4822009011887.893555,51850.299499,3200742.367973,-0.238562,51335.121260,243.775345,0.037592345,-0.037373860,0.698783437,0.713366468,-0.001332276,-0.076776234,-0.005892726,0.000000,0.000000,0.000000,1.000000,1,1,1,240943.718429,12689.065920,108090.738564,-836.487449,45155.742501,-6936.574332,-1.076041,22.387557,7.979600
1.029729,499.264428,204.949453,3.242619,0.613265,5.249783,27572.606168,4822009011887.888672,52849.281696,3200747.114826,-0.259502,51335.556918,243.930627,0.038052018,-0.037863815,0.698708907,0.713389262,-0.001860210,-0.069135032,-0.006973941,0.000000,0.000000,0.000000,1.000000,1,1,1,289293.539798,-2528.586399,293312.757297,1849.167977,-78133.224522,10066.647936,0.502110,25.083472,26.586609
1.049775,499.333737,205.430700,3.590934,0.607347,5.234106,27042.898206,4822009011887.882812,53878.338975,3200752.008859,-0.265409,51336.032457,244.278648,0.038525490,-0.038367055,0.698631152,0.713413112,-0.001467618,-0.072435616,-0.006672121,0.000000,0.000000,0.000000,1.000000,1,1,1,240901.511083,13126.632736,109642.761469,-785.798369,44756.501329,-6947.753600,-1.114007,22.332377,8.191404
1.069080,499.406117,205.864576,3.749356,0.614776,5.263997,27708.427566,4822009011887.876953,54869.410541,3200756.727812,-0.286915,51336.463593,244.436787,0.038952667,-0.038824461,0.698552799,0.713441896,-0.001959988,-0.064922047,-0.007746534,0.000000,0.000000,0.000000,1.000000,1,1,1,285127.091512,-3769.565126,284639.998979,2157.145077,-73251.755792,11994.196907,0.620699,24.686466,25.761318
1.089157,499.485670,206.342718,4.091925,0.610033,5.245718,27282.385429,4822009011887.871094,55900.077969,3200761.639541,-0.291982,51336.935331,244.779059,0.039396126,-0.039297060,0.698471074,0.713471685,-0.001453022,-0.067847224,-0.007281575,0.000000,0.000000,0.000000,1.000000,1,1,1,240836.532006,13496.356179,111032.759314,-782.602534,43706.997907,-6890.909435,-1.144735,22.278055,8.382994
1.108645,499.568603,206.780086,4.255587,0.611320,5.270320,27397.445270,4822009011887.865234,56900.572245,3200766.413130,-0.314291,51337.369500,244.942432,0.039797138,-0.039727302,0.698388901,0.713506043,-0.001948122,-0.060440195,-0.008357221,0.000000,0.000000,0.000000,1.000000,1,1,1,240862.307089,13607.041039,112123.943494,-571.895762,38570.377080,-6020.123182,-1.152514,22.253080,8.515770
1.128134,499.654776,207.217136,4.421837,0.617112,5.287091,27918.897238,4822009011887.858398,57901.069236,3200771.189926,-0.336752,51337.803179,245.108392,0.040151494,-0.040114185,0.698302363,0.713549242,-0.002310827,-0.053903597,-0.009297348,0.000000,0.000000,0.000000,1.000000,1,1,1,278545.764573,-8123.206467,269520.070027,3100.634877,-69432.161699,18371.695970,1.044231,24.097970,24.299857
1.149784,499.755381,207.726377,4.778621,0.614104,5.258692,27647.272132,4822009011887.850586,59012.529401,3200776.501339,-0.337951,51338.304663,245.464849,0.040548625,-0.040541682,0.698208848,0.713594132,-0.001371630,-0.057246159,-0.008151242,0.000000,0.000000,0.000000,1.000000,1,1,1,240722.700524,13845.433453,113083.953881,-763.045083,37876.654938,-6223.931373,-1.168970,22.199373,8.656963
1.167429,499.842400,208.121542,4.931642,0.615267,5.271118,27751.885609,4822009011887.844727,59918.419801,3200780.835353,-0.358578,51338.696379,245.617605,0.040857304,-0.040873409,0.698132870,0.713631936,-0.001808616,-0.051434279,-0.009030762,0.000000,0.000000,0.000000,1.000000,1,1,1,240716.320848,13890.575966,113872.231020,-570.542239,33645.840463,-5361.461527,-1.170344,22.177616,8.753761
1.186804,499.941240,208.555185,5.101541,0.616540,5.278128,27866.742070,4822009011887.836914,60913.123409,3200785.597519,-0.381253,51339.126074,245.787210,0.041155737,-0.041200557,0.698045639,0.713681305,-0.002168111,-0.045765382,-0.009863006,0.000000,0.000000,0.000000,1.000000,1,1,1,240688.570208,13896.131821,114596.908328,-395.460641,29386.874430,-4399.525397,-1.167244,22.154582,8.843618
1.206172,500.043368,208.988389,5.273120,0.617812,5.279346,27981.592368,4822009011887.829102,61907.469555,3200790.361251,-0.403861,51339.555165,245.958494,0.041419140,-0.041494786,0.697955462,0.713737214,-0.002418005,-0.040815775,-0.010545979,0.000000,0.000000,0.000000,1.000000,1,1,1,240642.394426,13864.121014,115196.908437,-254.964241,25556.666035,-3455.778357,-1.160214,22.132319,8.918958
1.225790,500.150248,209.426899,5.448387,0.620554,5.275459,28230.383209,4822009011887.820312,62914.625187,3200795.189742,-0.426621,51339.989343,246.133460,0.041655151,-0.041763175,0.697861915,0.713799295,-0.002582075,-0.036455760,-0.011089626,0.000000,0.000000,0.000000,1.000000,1,1,1,261911.682391,-10860.684727,220894.603731,3783.398053,-50234.938994,23700.135601,1.301313,22.908871,19.476110
1.246687,500.268199,209.905051,5.746070,0.622257,5.241627,28385.342653,4822009011887.810547,63987.529176,3200800.337496,-0.425037,51340.459747,246.430821,0.041912620,-0.042047190,0.697768093,0.713859268,-0.001357068,-0.039014112,-0.009321528,0.000000,0.000000,0.000000,1.000000,1,1,1,264222.605573,-7565.279919,230373.262218,2830.236584,-53905.486826,18910.134999,0.986076,23.010691,20.444453
1.268040,500.395277,210.395137,6.060603,0.621952,5.207657,28357.281274,4822009011887.800781,65083.804929,3200805.603889,-0.426804,51340.941220,246.745022,0.042200613,-0.042350262,0.697682592,0.713907952,-0.000592217,-0.041732426,-0.008035760,0.000000,0.000000,0.000000,1.000000,1,1,1,240259.396663,13947.286213,115445.455230,-898.717675,27422.029885,-4852.549618,-1.156555,22.060375,8.989872
1.287179,500.514565,210.822177,6.232956,0.623210,5.204960,28471.891905,4822009011887.791992,66066.414528,3200810.329574,-0.448939,51341.363428,246.917077,0.042444470,-0.042608309,0.697607095,0.713951917,-0.001149137,-0.037168670,-0.008779052,0.000000,0.000000,0.000000,1.000000,1,1,1,240201.069482,13923.631341,115954.314724,-656.098846,23770.742216,-3918.564996,-1.150948,22.038799,9.054376
1.306571,500.638845,211.254620,6.408846,0.625330,5.197614,28665.757313,4822009011887.783203,67062.051489,3200815.121276,-0.471258,51341.790812,247.092663,0.042661834,-0.042844560,0.697527777,0.714002319,-0.001561607,-0.033160075,-0.009387529,0.000000,0.000000,0.000000,1.000000,1,1,1,258086.486645,-6585.139685,210426.970000,2801.737605,-44886.482940,18570.665662,0.890175,22.597836,18.479323
1.326798,500.772231,211.714229,6.688160,0.626798,5.164460,28800.216846,4822009011887.773438,68100.527387,3200820.122870,-0.473805,51342.242021,247.371659,0.042891761,-0.043090298,0.697448688,0.714051014,-0.000799699,-0.035308444,-0.008128762,0.000000,0.000000,0.000000,1.000000,1,1,1,259258.790748,-3903.571827,216056.096417,2106.089816,-46685.856128,14838.828903,0.632578,22.634392,19.057047
1.346944,500.910759,212.172676,6.972174,0.627192,5.132541,28836.187353,4822009011887.763672,69134.897582,3200825.110310,-0.478944,51342.691582,247.655353,0.043138679,-0.043346326,0.697376624,0.714091027,-0.000360494,-0.037425283,-0.007247222,0.000000,0.000000,0.000000,1.000000,1,1,1,239817.293260,13972.530186,116090.013398,-919.837673,24636.455126,-4535.448667,-1.145811,21.971694,9.107633
1.366528,501.050791,212.608633,7.150842,0.628477,5.125575,28954.199999,4822009011887.753906,70140.353469,3200829.963655,-0.501383,51343.121855,247.833709,0.043362366,-0.043581749,0.697306506,0.714131622,-0.000943279,-0.033229960,-0.007957944,0.000000,0.000000,0.000000,1.000000,1,1,1,239743.321292,13938.849204,116513.054306,-667.700269,21160.152297,-3616.490592,-1.139500,21.950236,9.162176
1.386464,501.197001,213.052203,7.333824,0.630202,5.114186,29113.170788,4822009011887.743164,71163.974390,3200834.908282,-0.524101,51343.559470,248.016372,0.043561770,-0.043798050,0.697232338,0.714178668,-0.001374391,-0.029561459,-0.008535171,0.000000,0.000000,0.000000,1.000000,1,1,1,254928.449832,-4760.583556,201284.922552,2505.945882,-41200.140451,16850.522150,0.719005,22.343888,17.610371
1.406536,501.347839,213.505662,7.603282,0.631120,5.080344,29197.704059,4822009011887.732422,72194.562091,3200839.890158,-0.528225,51344.003800,248.285507,0.043765725,-0.044015864,0.697160895,0.714222551,-0.000715228,-0.031585392,-0.007401039,0.000000,0.000000,0.000000,1.000000,1,1,1,239493.743353,13901.786216,116656.641339,-713.760654,19843.349035,-3487.777025,-1.129608,21.907508,9.199110
1.425033,501.491624,213.916728,7.773733,0.632330,5.068736,29309.551411,4822009011887.722656,73144.255882,3200844.485728,-0.549118,51344.409013,248.455658,0.043944469,-0.044207574,0.697096614,0.714262476,-0.001142497,-0.028393718,-0.007917415,0.000000,0.000000,0.000000,1.000000,1,1,1,239406.824186,13844.819152,116936.003324,-518.245962,17068.390048,-2691.640509,-1.121249,21.888141,9.236702
1.444256,501.644474,214.343713,7.951603,0.633738,5.053502,29439.936194,4822009011887.711914,74131.256728,3200849.265200,-0.570672,51344.829768,248.633215,0.044109074,-0.044389209,0.697027982,0.714308043,-0.001465254,-0.025540486,-0.008331765,0.000000,0.000000,0.000000,1.000000,1,1,1,252228.365704,-4718.360974,192116.511076,2585.583027,-38482.783835,17469.492002,0.719554,22.157590,16.720754
1.464619,501.810047,214.801582,8.216524,0.634937,5.017676,29551.084215,4822009011887.700195,75176.773999,3200854.331655,-0.574650,51345.278010,248.897804,0.044288397,-0.044582743,0.696959223,0.714351985,-0.000734293,-0.027664680,-0.007064579,0.000000,0.000000,0.000000,1.000000,1,1,1,239137.619352,13773.945577,116910.908942,-631.020337,16285.383895,-2751.093075,-1.108385,21.847775,9.253204
1.484540,501.977408,215.243613,8.401189,0.636310,5.001409,29678.805771,4822009011887.688477,76199.653333,3200859.293724,-0.596730,51345.713249,249.082141,0.044456077,-0.044764126,0.696894344,0.714393522,-0.001141059,-0.024843483,-0.007503296,0.000000,0.000000,0.000000,1.000000,1,1,1,251417.607994,-2975.152064,190335.912032,2218.306882,-38172.140568,15467.051523,0.553145,22.082568,16.560265
1.504818,502.151386,215.698833,8.663551,0.637581,4.965868,29797.168779,4822009011887.676758,77240.872245,3200864.348338,-0.602258,51346.158466,249.344168,0.044631472,-0.044950859,0.696831522,0.714432139,-0.000560591,-0.026999899,-0.006409058,0.000000,0.000000,0.000000,1.000000,1,1,1,238863.144245,13711.467471,116870.069828,-659.205870,15532.036539,-2694.572849,-1.096871,21.807232,9.267808
1.524775,502.327979,216.141178,8.848841,0.638887,4.949279,29918.963326,4822009011887.664062,78265.598052,3200869.328200,-0.624148,51346.593673,249.529126,0.044796506,-0.045127933,0.696771475,0.714469211,-0.000986086,-0.024304419,-0.006839466,0.000000,0.000000,0.000000,1.000000,1,1,1,250722.755383,-1597.673325,188990.196999,1968.290426,-38042.211926,13951.561988,0.422216,22.013466,16.442814
1.544978,502.510326,216.594006,9.109170,0.640221,4.914067,30043.752467,4822009011887.650391,79302.933672,3200874.372883,-0.630872,51347.036116,249.789118,0.044968283,-0.045309958,0.696713410,0.714503524,-0.000496926,-0.026498700,-0.005870516,0.000000,0.000000,0.000000,1.000000,1,1,1,238587.534042,13658.273915,116810.920177,-648.730784,14911.904139,-2592.946629,-1.086820,21.767108,9.280083
1.564545,502.692124,217.027243,9.291083,0.641498,4.897740,30163.352413,4822009011887.637695,80307.657483,3200879.264099,-0.652138,51347.462036,249.970703,0.045128051,-0.045480880,0.696658569,0.714536064,-0.000907386,-0.023961405,-0.006276582,0.000000,0.000000,0.000000,1.000000,1,1,1,238480.569136,13600.481767,116992.380674,-461.817996,12579.077906,-1913.744610,-1.078943,21.747662,9.306566
1.583820,502.874669,217.453778,9.470791,0.642754,4.879357,30281.209768,4822009011887.625000,81297.382458,3200884.085716,-0.672934,51347.881220,250.150086,0.045269419,-0.045636534,0.696603267,0.714571112,-0.001195466,-0.021852964,-0.006571961,0.000000,0.000000,0.000000,1.000000,1,1,1,238367.374120,13526.718783,117112.702044,-317.863235,10552.995308,-1288.006049,-1.069462,21.729008,9.325970
1.603054,503.060286,217.879191,9.650495,0.643864,4.859132,30385.533237,4822009011887.611328,82285.027205,3200888.900609,-0.693504,51348.299160,250.329464,0.045397387,-0.045780967,0.696547368,0.714608245,-0.001393578,-0.020087809,-0.006770489,0.000000,0.000000,0.000000,1.000000,1,1,1,248521.858356,-2711.291763,181912.133041,2361.720046,-37536.251450,16157.790966,0.537434,21.848103,15.765299
1.624661,503.272832,218.361455,9.922089,0.645286,4.819509,30519.494851,4822009011887.595703,83394.531794,3200894.313568,-0.699136,51348.769755,250.600690,0.045550511,-0.045948227,0.696489158,0.714644502,-0.000643048,-0.022789972,-0.005435831,0.000000,0.000000,0.000000,1.000000,1,1,1,249006.242805,1241.201239,185379.423383,1460.823697,-38059.508099,11044.589343,0.152807,21.851379,16.119118
1.644760,503.475768,218.810296,10.178023,0.646753,4.784890,30658.113603,4822009011887.582031,84426.594105,3200899.353884,-0.708217,51349.207329,250.856280,0.045713269,-0.046118587,0.696441333,0.714669744,-0.000329170,-0.025159145,-0.004678524,0.000000,0.000000,0.000000,1.000000,1,1,1,237894.427256,13456.950945,116573.457681,-609.560103,12950.732549,-2120.049341,-1.056293,21.671090,9.295991
1.664276,503.677945,219.241263,10.359778,0.648024,4.768321,30778.333576,4822009011887.567383,85428.726151,3200904.253100,-0.728832,51349.630259,251.037699,0.045866587,-0.046281326,0.696395816,0.714693755,-0.000713656,-0.022961341,-0.005009629,0.000000,0.000000,0.000000,1.000000,1,1,1,237785.347622,13415.704694,116731.193071,-437.795340,10911.572566,-1573.298637,-1.050593,21.652011,9.319624
1.683840,503.884197,219.673067,10.542447,0.649296,4.749670,30898.900939,4822009011887.552734,86433.348407,3200909.168017,-0.749386,51350.053863,251.220030,0.046005811,-0.046433265,0.696349136,0.714720434,-0.000990676,-0.021104970,-0.005256087,0.000000,0.000000,0.000000,1.000000,1,1,1,237669.054702,13359.254775,116835.770976,-303.118727,9109.653638,-1057.800915,-1.043345,21.633367,9.337215
1.703606,504.096228,220.109090,10.727348,0.650580,4.729127,31020.796401,4822009011887.537109,87448.329068,3200914.137216,-0.770008,51350.481463,251.404587,0.046134398,-0.046576965,0.696301384,0.714749317,-0.001184653,-0.019539154,-0.005423631,0.000000,0.000000,0.000000,1.000000,1,1,1,237545.711690,13290.179922,116895.676517,-197.164469,7510.112724,-575.187148,-1.034806,21.614956,9.349778
1.722484,504.302070,220.525300,10.904179,0.651805,4.708265,31137.320885,4822009011887.522461,88417.710588,3200918.886463,-0.789543,51350.889501,251.581088,0.046248327,-0.046706645,0.696255650,0.714778044,-0.001305362,-0.018306247,-0.005510789,0.000000,0.000000,0.000000,1.000000,1,1,1,237423.557341,13216.055165,116918.243717,-119.204891,6177.617756,-156.133527,-1.025838,21.597704,9.357837
1.742426,504.523243,220.964755,11.091140,0.653098,4.685122,31260.549444,4822009011887.505859,89441.742381,3200923.907135,-0.810000,51351.320196,251.767699,0.046360699,-0.046836522,0.696207592,0.714809076,-0.001382694,-0.017234894,-0.005536018,0.000000,0.000000,0.000000,1.000000,1,1,1,237290.624087,13131.215512,116910.408319,-55.112150,4940.970007,244.604152,-1.015728,21.579797,9.362747
1.762275,504.747090,221.401952,11.277336,0.654384,4.661255,31383.362913,4822009011887.489258,90461.049281,3200928.908289,-0.830162,51351.748544,251.953545,0.046466384,-0.046960013,0.696160384,0.714840089,-0.001418593,-0.016381937,-0.005497494,0.000000,0.000000,0.000000,1.000000,1,1,1,237155.291207,13042.797278,116877.318994,-6.886487,3875.364814,596.835416,-1.005301,21.562238,9.364763
1.781659,504.969211,221.828673,11.459205,0.655640,4.637368,31503.456362,4822009011887.472656,91456.454247,3200933.795649,-0.849648,51352.166504,252.135071,0.046565105,-0.047076153,0.696115195,0.714870032,-0.001423462,-0.015728599,-0.005405245,0.000000,0.000000,0.000000,1.000000,1,1,1,237020.960967,12954.717002,116826.010483,28.252374,2978.478360,895.493758,-0.994991,21.545301,9.364574
1.801579,505.201200,222.266982,11.646103,0.656929,4.612392,31627.049603,4822009011887.455078,92479.404308,3200938.821926,-0.869469,51352.595689,252.321614,0.046663036,-0.047191774,0.696069999,0.714900031,-0.001405854,-0.015212546,-0.005262838,0.000000,0.000000,0.000000,1.000000,1,1,1,236881.245400,12864.143967,116757.876105,54.895973,2183.724282,1157.998245,-0.984452,21.528080,9.362632
1.821257,505.433998,222.699738,11.830691,0.658202,4.587468,31749.321430,4822009011887.437500,93489.917658,3200943.790681,-0.888840,51353.019314,252.505850,0.046757371,-0.047303207,0.696026804,0.714928558,-0.001371516,-0.014838768,-0.005080826,0.000000,0.000000,0.000000,1.000000,1,1,1,236742.132858,12776.207982,116679.489048,73.575854,1514.377185,1373.736685,-0.974268,21.511214,9.359455
1.840110,505.660380,223.114158,12.007490,0.659422,4.563481,31866.645334,4822009011887.419922,94458.115409,3200948.554656,-0.907209,51353.424878,252.682309,0.046846331,-0.047408098,0.695986926,0.714954609,-0.001327227,-0.014590386,-0.004873884,0.000000,0.000000,0.000000,1.000000,1,1,1,236608.250079,12694.572867,116597.304646,85.817264,970.133662,1541.571675,-0.964849,21.495163,9.355609
1.859169,505.892628,223.532883,12.186139,0.660331,4.539222,31954.128026,4822009011887.402344,95436.849038,3200953.373832,-0.925598,51353.834546,252.860614,0.046935441,-0.047512791,0.695948295,0.714979419,-0.001274904,-0.014429508,-0.004639090,0.000000,0.000000,0.000000,1.000000,1,1,1,243182.538628,1932.252557,165040.642053,1781.583481,-34837.988567,12746.645401,0.097274,21.465682,14.156556
1.880034,506.150473,223.993695,12.431763,0.661656,4.501883,32081.921402,4822009011887.382812,96508.356431,3200958.653358,-0.934554,51354.282568,253.105860,0.047046273,-0.047636778,0.695910406,0.715000764,-0.000644207,-0.017544245,-0.003435677,0.000000,0.000000,0.000000,1.000000,1,1,1,244286.291125,4932.349932,172399.408132,1073.027927,-37920.674454,8715.196906,-0.194486,21.477457,14.893928
1.900083,506.403096,224.437042,12.674850,0.663324,4.467837,32243.348163,4822009011887.363281,97537.984627,3200963.731344,-0.946062,51354.713019,253.348581,0.047176106,-0.047774701,0.695879571,0.715013018,-0.000344910,-0.020589408,-0.002670237,0.000000,0.000000,0.000000,1.000000,1,1,1,236121.675460,12616.168722,115792.640704,-261.644397,5544.833637,278.818088,-0.953843,21.444168,9.292203
1.919121,506.647763,224.854674,12.852098,0.664162,4.450136,32324.448025,4822009011887.344727,98515.649331,3200968.557794,-0.964221,51355.121259,253.525480,0.047304158,-0.047910754,0.695852610,0.715021693,-0.000505925,-0.019671491,-0.002627864,0.000000,0.000000,0.000000,1.000000,1,1,1,245284.725405,6533.359726,179833.553391,778.322255,-41830.655919,6555.253828,-0.348957,21.465109,15.646133
1.939464,506.912770,225.304854,13.106276,0.665886,4.416619,32491.944204,4822009011887.325195,99560.406510,3200973.718972,-0.977454,51355.557547,253.779283,0.047451535,-0.048066304,0.695825273,0.715028092,-0.000312167,-0.022963253,-0.002063436,0.000000,0.000000,0.000000,1.000000,1,1,1,235837.416178,12633.433968,115542.207451,-262.799767,7489.409368,-57.420375,-0.954471,21.408429,9.281330
1.958851,507.170342,225.729700,13.286564,0.666707,4.401228,32571.588559,4822009011887.305664,100556.000521,3200978.642260,-0.995957,51355.972574,253.959212,0.047595560,-0.048218969,0.695800690,0.715032162,-0.000476808,-0.021700715,-0.002072435,0.000000,0.000000,0.000000,1.000000,1,1,1,246412.632500,7608.498954,187818.645140,609.312732,-45968.649485,5083.085671,-0.452270,21.453403,16.455594
1.979671,507.450776,226.190829,13.555090,0.668022,4.367725,32699.659638,4822009011887.284180,101625.255056,3200983.933571,-1.010607,51356.418581,254.227352,0.047761333,-0.048393974,0.695775119,0.715034169,-0.000336114,-0.025288633,-0.001646593,0.000000,0.000000,0.000000,1.000000,1,1,1,247762.902107,8735.926257,195773.234695,380.571599,-48601.273394,3532.763784,-0.560928,21.470617,17.257202
1.999676,507.725533,226.634598,13.820892,0.669814,4.337656,32874.775941,4822009011887.263672,102652.645429,3200989.022966,-1.025814,51356.847102,254.492780,0.047944453,-0.048585739,0.695751269,0.715032116,-0.000292960,-0.028683788,-0.001391219,0.000000,0.000000,0.000000,1.000000,1,1,1,235398.535567,12756.323382,115102.174350,-266.735443,12758.835404,-621.770932,-0.965847,21.351477,9.263411
2.018821,507.993528,227.053473,13.998596,0.671052,4.328380,32995.774968,4822009011887.244141,103635.862815,3200993.898540,-1.044304,51357.255869,254.670125,0.048118896,-0.048769894,0.695728669,0.715029851,-0.000457934,-0.026559750,-0.001486556,0.000000,0.000000,0.000000,1.000000,1,1,1,235308.157424,12801.838305,115384.921615,-198.296702,11015.884631,-555.660109,-0.970256,21.331768,9.300500
2.038604,508.274109,227.486082,14.182963,0.672329,4.316603,33120.906095,4822009011887.222656,104651.879577,3200998.940358,-1.063499,51357.677878,254.854118,0.048285257,-0.048947615,0.695705489,0.715029046,-0.000584733,-0.024664705,-0.001574659,0.000000,0.000000,0.000000,1.000000,1,1,1,235207.670797,12835.378230,115616.880961,-141.639210,9412.391206,-464.186558,-0.973468,21.311994,9.332064
2.057393,508.543896,227.896726,14.358662,0.673540,4.303748,33239.855807,4822009011887.202148,105616.863962,3201003.732193,-1.081790,51358.078317,255.029461,0.048432661,-0.049106605,0.695683626,0.715029448,-0.000670817,-0.023126842,-0.001644615,0.000000,0.000000,0.000000,1.000000,1,1,1,235106.718725,12856.869737,115790.277815,-99.189090,8071.516431,-364.601842,-0.975483,21.293678,9.356780
2.076984,508.828786,228.324660,14.542339,0.674215,4.288817,33305.879672,4822009011887.180664,106623.006241,3201008.731957,-1.100900,51358.495472,255.212766,0.048576566,-0.049263145,0.695661017,0.715030915,-0.000733740,-0.021751819,-0.001701962,0.000000,0.000000,0.000000,1.000000,1,1,1,245616.886243,8501.972816,189287.718384,623.482422,-46578.447619,4098.280199,-0.540635,21.296813,16.648999
2.097813,509.135535,228.784506,14.813794,0.676161,4.255844,33497.763948,4822009011887.157227,107692.768144,3201014.051668,-1.116702,51358.938840,255.483823,0.048740908,-0.049440152,0.695637344,0.715030545,-0.000545912,-0.025351545,-0.001381710,0.000000,0.000000,0.000000,1.000000,1,1,1,234824.934101,12918.119660,115593.766257,-136.283746,10104.734307,-543.400500,-0.981327,21.256074,9.353210
2.117763,509.434799,229.219820,15.000775,0.676803,4.243102,33560.787741,4822009011887.134766,108717.393681,3201019.152324,-1.136279,51359.362901,255.670421,0.048900861,-0.049612151,0.695615064,0.715029386,-0.000633843,-0.023598571,-0.001468623,0.000000,0.000000,0.000000,1.000000,1,1,1,247244.356027,8849.092589,199924.043440,550.103213,-52500.851169,3583.965078,-0.572939,21.289133,17.724830
2.139838,509.770399,229.707922,15.300392,0.678887,4.208246,33767.142950,4822009011887.109375,109851.185943,3201024.800826,-1.153465,51359.832288,255.969612,0.049091302,-0.049815413,0.695590421,0.715026178,-0.000471606,-0.027812346,-0.001191491,0.000000,0.000000,0.000000,1.000000,1,1,1,234537.467996,13013.810645,115431.871124,-159.149424,12523.255579,-741.077414,-0.990740,21.215845,9.355391
2.159574,510.076008,230.138055,15.485408,0.679564,4.198307,33833.828102,4822009011887.085938,110864.805135,3201029.856153,-1.173018,51360.250993,256.154245,0.049264050,-0.049999783,0.695568452,0.715022800,-0.000573136,-0.025663185,-0.001308669,0.000000,0.000000,0.000000,1.000000,1,1,1,251445.285746,8587.437708,222633.265642,587.613105,-66346.724116,3692.016788,-0.542454,21.357843,20.011032
2.185674,510.486787,230.718167,15.869608,0.681254,4.154648,34001.505227,4822009011887.054688,112205.305934,3201036.548322,-1.193081,51360.806311,256.537937,0.049516229,-0.050266751,0.695538896,0.715015413,-0.000373981,-0.031973242,-0.000991427,0.000000,0.000000,0.000000,1.000000,1,1,1,254621.703074,9799.899126,238047.396748,323.920896,-71364.227794,2010.499808,-0.657408,21.436438,21.567856
2.209907,510.877275,231.259193,16.244743,0.682650,4.117956,34140.132876,4822009011887.025391,113449.945657,3201042.770939,-1.213234,51361.322561,256.912596,0.049799750,-0.050563729,0.695509578,0.715003301,-0.000325596,-0.037729961,-0.000900054,0.000000,0.000000,0.000000,1.000000,1,1,1,254032.406122,10669.057616,236560.006039,175.424384,-64993.074059,917.811342,-0.743972,21.380526,21.432902
2.230113,511.209614,231.709758,16.555954,0.684097,4.093409,34284.284172,4822009011887.000000,114487.760317,3201047.966213,-1.231055,51361.752200,257.223409,0.050068874,-0.050844773,0.695482873,0.714990553,-0.000343623,-0.041467201,-0.000936942,0.000000,0.000000,0.000000,1.000000,1,1,1,258093.229192,10489.922383,254715.040255,217.820767,-73422.494161,955.423237,-0.721229,21.497768,23.269219
2.251439,511.567467,232.188100,16.904004,0.686218,4.067640,34496.510011,4822009011886.972656,115583.134881,3201053.456661,-1.249773,51362.206670,257.571037,0.050381060,-0.051170496,0.695452080,0.714975338,-0.000349767,-0.045822948,-0.000990808,0.000000,0.000000,0.000000,1.000000,1,1,1,233720.410922,13623.308106,114500.353768,-248.218343,31176.969165,-1848.233821,-1.051551,21.097191,9.332925
2.271302,511.906921,232.619604,17.089781,0.686555,4.075594,34529.661123,4822009011886.947266,116603.357707,3201058.576512,-1.270660,51362.625727,257.756418,0.050657396,-0.051460509,0.695422409,0.714963858,-0.000509103,-0.040437965,-0.001284716,0.000000,0.000000,0.000000,1.000000,1,1,1,256417.548106,9931.504640,249927.096349,401.889122,-69386.463953,1721.244554,-0.670037,21.353689,22.817192
2.292232,512.269176,233.087344,17.427605,0.688877,4.050176,34762.775868,4822009011886.919922,117678.378085,3201063.975885,-1.288809,51363.069697,258.093824,0.050953716,-0.051771253,0.695390068,0.714951824,-0.000438225,-0.044294010,-0.001290833,0.000000,0.000000,0.000000,1.000000,1,1,1,233525.876207,13909.578482,115111.343415,-231.919178,31223.332332,-2050.143693,-1.079945,21.046487,9.424482
2.312064,512.618505,233.517603,17.614906,0.688995,4.056270,34773.963888,4822009011886.893555,118697.002504,3201069.098026,-1.310227,51363.487085,258.280727,0.051218676,-0.052050323,0.695358597,0.714943238,-0.000586957,-0.038909555,-0.001616354,0.000000,0.000000,0.000000,1.000000,1,1,1,254296.373596,9475.141191,242946.153004,537.463314,-64451.847046,2423.752977,-0.629013,21.201905,22.143975
2.332476,512.982354,233.971832,17.938382,0.691491,4.031340,35025.554451,4822009011886.866211,119745.443646,3201074.374356,-1.327779,51363.918008,258.603792,0.051494936,-0.052340697,0.695325447,0.714934435,-0.000468056,-0.042234406,-0.001575272,0.000000,0.000000,0.000000,1.000000,1,1,1,233328.465208,14157.259889,115667.410294,-232.683974,30634.198104,-2165.342429,-1.104274,20.997250,9.508673
2.352087,513.337800,234.396754,18.125251,0.691438,4.035150,35019.454919,4822009011886.839844,120752.734070,3201079.449414,-1.349434,51364.329779,258.790263,0.051743933,-0.052603374,0.695292971,0.714928762,-0.000615674,-0.037010411,-0.001915243,0.000000,0.000000,0.000000,1.000000,1,1,1,252599.753283,8989.701447,237465.472976,657.726331,-61042.733603,3176.757767,-0.584085,21.074318,21.619900
2.372447,513.711068,234.848234,18.443353,0.692774,4.009493,35154.114527,4822009011886.812500,121798.535312,3201084.722697,-1.366710,51364.757819,259.107951,0.052005374,-0.052878327,0.695258767,0.714922773,-0.000456947,-0.040072030,-0.001817117,0.000000,0.000000,0.000000,1.000000,1,1,1,255533.007884,9111.696566,251384.221823,586.776890,-67420.708018,2862.799690,-0.592444,21.135209,23.028929
2.393553,514.105036,235.318192,18.787919,0.694156,3.983292,35293.645986,4822009011886.783203,122882.644569,3201090.196116,-1.384830,51365.201938,259.452087,0.052299745,-0.053185563,0.695222055,0.714914210,-0.000341017,-0.043525259,-0.001763197,0.000000,0.000000,0.000000,1.000000,1,1,1,258014.054466,9328.018372,262788.855033,516.717785,-71510.407674,2463.433107,-0.610539,21.184550,24.189542
2.414702,514.507242,235.790777,19.145434,0.695493,3.958365,35428.896162,4822009011886.753906,123968.994756,3201095.688219,-1.403330,51365.647236,259.809167,0.052619528,-0.053517689,0.695183464,0.714903486,-0.000268916,-0.047010125,-0.001765592,0.000000,0.000000,0.000000,1.000000,1,1,1,259362.356624,9621.634788,269279.890170,451.299156,-72082.656773,2023.803656,-0.637737,21.192894,24.858530
2.435140,514.903126,236.248257,19.497765,0.697016,3.936601,35583.309357,4822009011886.724609,125018.783088,3201101.002646,-1.421650,51366.077369,260.161077,0.052951278,-0.053861281,0.695144071,0.714891492,-0.000235670,-0.050075125,-0.001825512,0.000000,0.000000,0.000000,1.000000,1,1,1,264421.471454,9159.797482,289709.663977,522.359017,-82003.287526,2384.156696,-0.585480,21.348637,26.934919
2.457115,515.337174,236.743981,19.899531,0.699691,3.912030,35855.985596,4822009011886.693359,126147.591419,3201106.725411,-1.440968,51366.541302,260.562387,0.053332539,-0.054255385,0.695099094,0.714877082,-0.000185901,-0.053966683,-0.001879637,0.000000,0.000000,0.000000,1.000000,1,1,1,232516.904870,15074.910778,115542.051249,-423.085593,45891.178647,-3314.271192,-1.193572,20.845368,9.595904
2.476813,515.732872,237.169091,20.088956,0.700948,3.926851,35984.063279,4822009011886.664062,127159.391209,3201111.861558,-1.464478,51366.951903,260.751402,0.053646248,-0.054581853,0.695057649,0.714869055,-0.000455376,-0.046106322,-0.002402032,0.000000,0.000000,0.000000,1.000000,1,1,1,232494.365496,15202.859657,116537.449873,-319.634176,39619.014020,-3027.434852,-1.205890,20.815371,9.710917
2.496407,516.130223,237.591668,20.279638,0.702196,3.933593,36111.470016,4822009011886.634766,128165.869703,3201116.974380,-1.488106,51367.359754,260.941675,0.053911163,-0.054860447,0.695016413,0.714867892,-0.000658102,-0.039356004,-0.002876859,0.000000,0.000000,0.000000,1.000000,1,1,1,232447.083620,15277.542694,117290.869390,-233.667144,34100.042381,-2657.792511,-1.212763,20.788326,9.799219
2.515896,516.529195,238.011728,20.471031,0.701599,3.933552,36049.134567,4822009011886.605469,129167.015952,3201122.063797,-1.511743,51367.764914,261.132660,0.054134718,-0.055098078,0.694975375,0.714872620,-0.000805721,-0.033576825,-0.003291596,0.000000,0.000000,0.000000,1.000000,1,1,1,249512.487761,6340.321211,231572.415105,1277.697956,-53661.239691,6970.678118,-0.328249,20.672724,21.146838
2.536865,516.962942,238.472669,20.796608,0.702887,3.904718,36180.622821,4822009011886.574219,130244.132388,3201127.543874,-1.527923,51368.199347,261.457795,0.054374764,-0.055350970,0.694932141,0.714876894,-0.000429247,-0.035802329,-0.002894789,0.000000,0.000000,0.000000,1.000000,1,1,1,250224.243088,7617.900392,236011.587692,934.774286,-54618.680437,5276.834230,-0.452275,20.659046,21.602417
2.557278,517.391771,238.921768,21.118035,0.706128,3.878235,36514.147022,4822009011886.542969,131292.720601,3201132.885328,-1.545013,51368.621910,261.778792,0.054624805,-0.055610458,0.694891115,0.714877574,-0.000226936,-0.037838038,-0.002678069,0.000000,0.000000,0.000000,1.000000,1,1,1,232057.213451,15479.454754,117288.597123,-407.387628,34009.731682,-2884.063230,-1.230547,20.720444,9.836136
2.576500,517.801348,239.335294,21.307517,0.705406,3.876940,36438.586973,4822009011886.512695,132280.152587,3201137.920959,-1.568667,51369.020206,261.967865,0.054837915,-0.055832943,0.694852495,0.714881455,-0.000480175,-0.032153280,-0.003121687,0.000000,0.000000,0.000000,1.000000,1,1,1,247719.543931,7097.828302,225803.401938,1062.393761,-49935.624380,6195.033811,-0.402972,20.536678,20.602498
2.597143,518.245497,239.787353,21.622743,0.706659,3.848600,36567.168946,4822009011886.479492,133340.544395,3201143.332935,-1.585543,51369.445786,262.282651,0.055064589,-0.056068538,0.694811616,0.714885325,-0.000225624,-0.034015494,-0.002810701,0.000000,0.000000,0.000000,1.000000,1,1,1,248485.613428,8005.850107,230667.503428,823.317540,-51603.185344,4986.423255,-0.490737,20.521314,21.099066
2.617542,518.690837,240.234473,21.939128,0.707896,3.821731,36694.292859,4822009011886.446289,134388.442592,3201148.687522,-1.603175,51369.865981,262.598600,0.055302220,-0.056313041,0.694771989,0.714886277,-0.000088064,-0.035822073,-0.002625285,0.000000,0.000000,0.000000,1.000000,1,1,1,249075.139886,8641.039164,234597.377668,672.330605,-52569.699834,4161.386860,-0.552000,20.501218,21.502947
2.637576,519.134503,240.673850,22.253745,0.711313,3.796575,37048.304452,4822009011886.413086,135417.585049,3201153.952520,-1.621175,51370.278240,262.912787,0.055547854,-0.056564603,0.694733083,0.714885183,-0.000022081,-0.037500937,-0.002526046,0.000000,0.000000,0.000000,1.000000,1,1,1,231512.252004,15734.459353,116970.528578,-501.918297,35296.817374,-3081.644466,-1.252948,20.633802,9.851987
2.657386,519.579229,241.098992,22.449345,0.712570,3.794988,37178.348476,4822009011886.380859,136435.257039,3201159.164785,-1.645996,51370.687003,263.107958,0.055763327,-0.056787796,0.694694224,0.714888476,-0.000343435,-0.031420564,-0.003014445,0.000000,0.000000,0.000000,1.000000,1,1,1,231435.966332,15752.431535,117476.575363,-362.818937,30094.543095,-2573.627649,-1.254081,20.609368,9.912609
2.676609,520.014429,241.511258,22.640306,0.713788,3.787745,37304.539886,4822009011886.348633,137422.736240,3201164.226033,-1.670103,51371.083166,263.298503,0.055937481,-0.056971091,0.694656314,0.714897124,-0.000568999,-0.026390187,-0.003410356,0.000000,0.000000,0.000000,1.000000,1,1,1,231343.647865,15730.208568,117788.153451,-255.230216,25666.004124,-2056.534338,-1.251120,20.587974,9.951759
2.696565,520.470215,241.939015,22.839342,0.713288,3.775068,37251.281494,4822009011886.314453,138447.923963,3201169.484474,-1.695071,51371.494027,263.497104,0.056086419,-0.057130569,0.694616965,0.714910962,-0.000733883,-0.021936244,-0.003738885,0.000000,0.000000,0.000000,1.000000,1,1,1,241298.790697,5159.076555,196802.554874,1536.658805,-37022.820645,9460.863276,-0.214516,20.273761,17.767294
2.718516,520.976113,242.414141,23.144301,0.716456,3.740584,37581.694891,4822009011886.277344,139575.591582,3201175.273066,-1.711083,51371.942287,263.801584,0.056249479,-0.057302213,0.694576178,0.714924042,-0.000248891,-0.023407069,-0.003040915,0.000000,0.000000,0.000000,1.000000,1,1,1,231042.827345,15671.412826,117453.170090,-358.725178,22957.225708,-1967.451011,-1.243336,20.550389,9.933368
2.737075,521.409079,242.811477,23.329064,0.717630,3.726777,37703.948673,4822009011886.245117,140529.022761,3201180.172444,-1.734158,51372.323686,263.985940,0.056375160,-0.057434171,0.694543523,0.714935278,-0.000464080,-0.019702113,-0.003333102,0.000000,0.000000,0.000000,1.000000,1,1,1,230931.348900,15611.957044,117530.278362,-252.223949,19521.094320,-1469.187577,-1.236699,20.532795,9.946575
2.756555,521.867295,243.228294,23.523247,0.717522,3.708646,37691.522940,4822009011886.210938,141529.733049,3201185.318508,-1.758248,51372.723653,264.179693,0.056483724,-0.057550595,0.694509358,0.714950536,-0.000622982,-0.016395485,-0.003562173,0.000000,0.000000,0.000000,1.000000,1,1,1,237235.435265,6252.801549,173524.421785,1340.444902,-25722.524214,8732.021650,-0.320876,20.225913,15.473039
2.777077,522.353768,243.669705,23.784539,0.720166,3.675969,37968.705375,4822009011886.173828,142584.012174,3201190.743736,-1.774132,51373.141706,264.440532,0.056596952,-0.057669942,0.694475677,0.714964682,-0.000233543,-0.017233023,-0.002923963,0.000000,0.000000,0.000000,1.000000,1,1,1,230624.666560,15485.472204,116998.448522,-313.145126,16925.199002,-1295.606575,-1.222385,20.501537,9.903575
2.796807,522.826892,244.091423,23.980372,0.720193,3.655739,37970.426934,4822009011886.138672,143597.600940,3201195.964944,-1.798250,51373.546197,264.635927,0.056693845,-0.057772227,0.694445358,0.714978198,-0.000433164,-0.014329269,-0.003128513,0.000000,0.000000,0.000000,1.000000,1,1,1,236348.273382,6645.300442,169444.375839,1214.402128,-25509.969731,8339.422499,-0.357974,20.193431,15.076451
2.818820,523.359010,244.564104,24.255733,0.722811,3.619826,38245.704220,4822009011886.099609,144728.511027,3201201.794686,-1.815536,51373.993937,264.910797,0.056801928,-0.057884482,0.694414011,0.714990986,-0.000076410,-0.015426405,-0.002465082,0.000000,0.000000,0.000000,1.000000,1,1,1,230294.316593,15347.861248,116316.722071,-346.868148,14807.976631,-1154.091529,-1.207186,20.471186,9.844564
2.837715,523.820852,244.967537,24.442173,0.722949,3.599528,38259.199710,4822009011886.064453,145699.251206,3201206.803800,-1.838346,51374.380749,265.096815,0.056886670,-0.057972725,0.694389045,0.715001346,-0.000288069,-0.012993333,-0.002639553,0.000000,0.000000,0.000000,1.000000,1,1,1,235057.368993,8255.313726,161957.546748,902.728769,-22244.546605,6590.245379,-0.514587,20.181238,14.342655
2.858539,524.333524,245.413750,24.694360,0.725324,3.566233,38509.793920,4822009011886.025391,146769.069813,3201212.327821,-1.856180,51374.803868,265.348533,0.056979658,-0.058068770,0.694363223,0.715011225,-0.000065942,-0.013890088,-0.002150595,0.000000,0.000000,0.000000,1.000000,1,1,1,229978.875634,15211.595599,115637.063831,-323.030870,12902.167383,-925.681495,-1.192526,20.443511,9.784296
2.878488,524.830052,245.839235,24.889998,0.725652,3.543809,38543.486916,4822009011885.988281,147793.957468,3201217.625171,-1.879969,51375.211697,265.543721,0.057059735,-0.058152462,0.694340045,0.715020545,-0.000274011,-0.011651944,-0.002298339,0.000000,0.000000,0.000000,1.000000,1,1,1,234137.148837,8980.669876,157021.704641,785.236850,-20929.575008,5894.343589,-0.584676,20.163479,13.860440
2.899369,525.353408,246.285914,25.137151,0.726907,3.510580,38675.652725,4822009011885.949219,148866.693981,3201223.173444,-1.898426,51375.635488,265.790401,0.057143797,-0.058239685,0.694317338,0.715028782,-0.000083015,-0.012592711,-0.001848385,0.000000,0.000000,0.000000,1.000000,1,1,1,234212.683177,10246.061542,158701.267006,505.470345,-22048.036500,4318.186899,-0.708404,20.142928,14.029230
2.919536,525.863762,246.717290,25.377055,0.729181,3.479451,38916.731808,4822009011885.910156,149902.803274,3201228.537096,-1.917439,51376.044472,266.029847,0.057232225,-0.058330066,0.694297561,0.715033546,-0.000011888,-0.013548886,-0.001554803,0.000000,0.000000,0.000000,1.000000,1,1,1,229479.888659,15020.006109,114389.850722,-307.796931,11786.908037,-749.404551,-1.172321,20.403883,9.670565
2.938104,526.338296,247.112680,25.557041,0.730350,3.459422,39040.516714,4822009011885.874023,150856.749210,3201233.480013,-1.939206,51376.423327,266.209408,0.057306890,-0.058407754,0.694280203,0.715038079,-0.000196372,-0.011645784,-0.001666123,0.000000,0.000000,0.000000,1.000000,1,1,1,229347.173186,14950.230162,114216.211671,-216.482726,9800.003111,-426.118141,-1.165229,20.390461,9.656049
2.957839,526.846452,247.532736,25.748064,0.730817,3.436401,39089.229405,4822009011885.834961,151870.713504,3201238.737638,-1.962203,51376.825749,266.399978,0.057373794,-0.058479369,0.694262141,0.715044398,-0.000334317,-0.009963943,-0.001733432,0.000000,0.000000,0.000000,1.000000,1,1,1,232850.474768,10086.365650,150997.697676,638.936665,-20218.040239,4867.025369,-0.691944,20.121790,13.275331
2.979148,527.398809,247.987365,25.992635,0.732067,3.403043,39221.665096,4822009011885.791992,152965.491943,3201244.417960,-1.981897,51377.257238,266.644058,0.057447853,-0.058557882,0.694244062,0.715049579,-0.000163055,-0.011100554,-0.001327253,0.000000,0.000000,0.000000,1.000000,1,1,1,232982.196228,11256.889083,153234.832470,382.738821,-21623.703728,3417.238936,-0.806688,20.097935,13.498408
2.999532,527.932044,248.422241,26.228323,0.733238,3.372200,39346.018179,4822009011885.750977,154012.780822,3201249.856669,-2.001843,51377.669642,266.879276,0.057527245,-0.058640621,0.694228547,0.715051479,-0.000102892,-0.012247438,-0.001068382,0.000000,0.000000,0.000000,1.000000,1,1,1,233218.936207,11898.156577,156355.342995,255.573756,-23582.113785,2627.910774,-0.869742,20.068125,13.808869
3.019587,528.461352,248.850093,26.462833,0.735491,3.342725,39586.816287,4822009011885.709961,155043.142064,3201255.212113,-2.022051,51378.074958,267.113321,0.057613538,-0.058730218,0.694214211,0.715051096,-0.000089853,-0.013476227,-0.000881048,0.000000,0.000000,0.000000,1.000000,1,1,1,228676.343805,14719.289811,112393.208427,-212.533648,10424.393407,-309.260408,-1.141877,20.341166,9.487117
3.039479,528.991528,249.272590,26.652021,0.735798,3.322741,39618.627543,4822009011885.668945,156065.198841,3201260.529473,-2.044766,51378.479598,267.302045,0.057693073,-0.058814268,0.694200769,0.715050826,-0.000226313,-0.011673014,-0.000930281,0.000000,0.000000,0.000000,1.000000,1,1,1,232662.564846,12135.878473,154068.221698,270.773487,-23340.643027,2492.896218,-0.893275,20.042876,13.588304
3.059540,529.529460,249.700010,26.883807,0.736851,3.293584,39730.822761,4822009011885.627930,157095.882658,3201265.894958,-2.065125,51378.884517,267.533362,0.057775101,-0.058901049,0.694187715,0.715049733,-0.000184917,-0.012963220,-0.000736781,0.000000,0.000000,0.000000,1.000000,1,1,1,233479.785352,12387.562961,162098.111604,215.643355,-28798.990647,2138.647655,-0.918616,19.988196,14.383256
3.081368,530.120232,250.165405,27.144193,0.739383,3.261993,40002.802351,4822009011885.583008,158217.364123,3201271.738510,-2.087513,51379.324378,267.793236,0.057875666,-0.059006917,0.694174021,0.715046166,-0.000162078,-0.014791178,-0.000559293,0.000000,0.000000,0.000000,1.000000,1,1,1,228189.784961,14596.792134,111198.022859,-152.202733,11069.877346,-138.162952,-1.130148,20.301973,9.379201
3.101191,530.662016,250.585739,27.330590,0.740626,3.244302,40136.134908,4822009011885.541016,159235.889130,3201277.050790,-2.109916,51379.726834,267.979164,0.057962808,-0.059099674,0.694162354,0.715042773,-0.000259459,-0.012882972,-0.000581236,0.000000,0.000000,0.000000,1.000000,1,1,1,228057.869250,14557.603013,111093.570611,-100.623944,9156.777740,23.012391,-1.126547,20.287115,9.372137
3.121070,531.209041,251.007031,27.517373,0.741873,3.224891,40269.948627,4822009011885.499023,160257.296092,3201282.381763,-2.132311,51380.130130,268.165477,0.058038812,-0.059181890,0.694151544,0.715040303,-0.000324034,-0.011300088,-0.000577620,0.000000,0.000000,0.000000,1.000000,1,1,1,227920.432987,14508.068751,110926.163926,-60.574539,7494.563091,182.357566,-1.121926,20.273162,9.358265
3.140112,531.736416,251.410350,27.696023,0.743065,3.205098,40398.233329,4822009011885.458008,161235.667238,3201287.491476,-2.153675,51380.516165,268.343674,0.058103142,-0.059252454,0.694142035,0.715038465,-0.000361282,-0.010059137,-0.000549888,0.000000,0.000000,0.000000,1.000000,1,1,1,227785.057683,14453.632433,110719.129254,-31.183971,6121.506528,326.767309,-1.116817,20.260520,9.339918
3.159614,532.280100,251.823209,27.878636,0.744286,3.183843,40529.742453,4822009011885.416016,162237.695327,3201292.728254,-2.175455,51380.911284,268.525820,0.058161833,-0.059317647,0.694133222,0.715036844,-0.000380935,-0.009021035,-0.000498955,0.000000,0.000000,0.000000,1.000000,1,1,1,227643.353444,14392.620786,110467.519026,-7.959108,4901.363736,463.930177,-1.111079,20.248203,9.316838
3.179571,532.840202,252.245493,28.065054,0.744945,3.161323,40600.135714,4822009011885.372070,163263.133600,3201298.091046,-2.197629,51381.315386,268.711760,0.058215923,-0.059378372,0.694125217,0.715035172,-0.000386088,-0.008170436,-0.000424930,0.000000,0.000000,0.000000,1.000000,1,1,1,230341.231782,13083.918561,141841.109012,207.926336,-20483.491450,1826.406639,-0.987644,19.991751,12.398783
3.200385,533.427694,252.686740,28.291260,0.746072,3.131407,40721.538857,4822009011885.325195,164332.562694,3201303.687220,-2.219405,51381.734027,268.937466,0.058276733,-0.059445821,0.694117467,0.715032138,-0.000312959,-0.009677854,-0.000223799,0.000000,0.000000,0.000000,1.000000,1,1,1,230673.088555,13578.455868,146232.943584,101.298615,-23142.263831,1218.870735,-1.037018,19.950405,12.832697
3.220666,534.004683,253.116726,28.515551,0.747111,3.103263,40833.582488,4822009011885.280273,165374.622140,3201309.144657,-2.241074,51382.141423,269.161268,0.058346872,-0.059522254,0.694110293,0.715027024,-0.000282294,-0.011282196,-0.000078205,0.000000,0.000000,0.000000,1.000000,1,1,1,231337.633468,13898.068770,153573.347477,39.364661,-27852.033282,816.206683,-1.069575,19.891879,13.557720
3.241852,534.612427,253.566141,28.757047,0.748239,3.074474,40955.443139,4822009011885.232422,166463.254587,3201314.850921,-2.264018,51382.566289,269.402252,0.058432929,-0.059615138,0.694102740,0.715019590,-0.000272127,-0.013274283,0.000039866,0.000000,0.000000,0.000000,1.000000,1,1,1,231707.586769,14168.180506,158094.585254,-5.532734,-30000.953213,483.480048,-1.097073,19.849668,14.006138
3.261854,535.190860,253.990477,28.989050,0.749199,3.048698,41059.114926,4822009011885.187500,167491.013270,3201320.242727,-2.285930,51382.966852,269.633769,0.058527321,-0.059716427,0.694095205,0.715010732,-0.000275411,-0.015194133,0.000124528,0.000000,0.000000,0.000000,1.000000,1,1,1,232758.199124,14372.268165,168223.128793,-35.107841,-36320.594900,210.663119,-1.118504,19.780390,15.008444
3.283176,535.812734,254.443273,29.246623,0.752039,3.021613,41369.454145,4822009011885.138672,168586.587189,3201325.995525,-2.309507,51383.392976,269.890821,0.058643346,-0.059840456,0.694086428,0.714999376,-0.000286241,-0.017667909,0.000190669,0.000000,0.000000,0.000000,1.000000,1,1,1,226660.859185,14192.312010,107705.068982,13.425732,11936.896280,540.565030,-1.093896,20.177369,9.062488
3.302505,536.381449,254.850919,29.422271,0.751654,3.009868,41325.662006,4822009011885.093750,169579.812100,3201331.215777,-2.330652,51383.782996,270.065995,0.058746328,-0.059950700,0.694079278,0.714988628,-0.000277849,-0.015661521,0.000274194,0.000000,0.000000,0.000000,1.000000,1,1,1,232756.946121,14766.856440,170676.760962,-89.405363,-38116.670866,-274.955095,-1.158992,19.728092,15.258428
3.324099,537.020692,255.309175,29.685491,0.752760,2.982829,41445.638580,4822009011885.042969,170689.397020,3201337.051457,-2.354986,51384.213679,270.328684,0.058867590,-0.060080468,0.694070971,0.714975825,-0.000303957,-0.018294327,0.000293822,0.000000,0.000000,0.000000,1.000000,1,1,1,233365.712204,14764.040776,176859.915264,-73.817207,-40694.955997,-281.856989,-1.159989,19.677625,15.873370
3.344498,537.629763,255.742255,29.939991,0.755885,2.959021,41788.895309,4822009011884.994141,171737.556551,3201342.569247,-2.377996,51384.619864,270.582681,0.058999557,-0.060221274,0.694061731,0.714962072,-0.000318205,-0.020790160,0.000311991,0.000000,0.000000,0.000000,1.000000,1,1,1,226222.624774,14225.361269,106893.828239,38.963103,14993.288102,471.849332,-1.099079,20.133678,8.997920
3.364152,538.221688,256.156026,30.117325,0.755255,2.950575,41717.769140,4822009011884.947266,172747.483399,3201347.890785,-2.399597,51385.015573,270.759528,0.059121589,-0.060351566,0.694053691,0.714948810,-0.000293461,-0.018227729,0.000386094,0.000000,0.000000,0.000000,1.000000,1,1,1,232977.595880,15022.899136,176203.986696,-108.509981,-40285.541212,-608.531308,-1.187197,19.636140,15.818173
3.384393,538.834775,256.585221,30.369203,0.758380,2.927233,42062.166072,4822009011884.898438,173787.588167,3201353.374773,-2.422765,51385.417886,271.010903,0.059251802,-0.060490543,0.694045046,0.714934677,-0.000318861,-0.020654880,0.000369288,0.000000,0.000000,0.000000,1.000000,1,1,1,225962.253663,14270.358514,106678.138053,43.990224,15086.016938,398.165155,-1.104913,20.101795,8.987639
3.403861,539.429421,256.994606,30.544663,0.757719,2.918965,41987.238094,4822009011884.850586,174787.977734,3201358.654276,-2.444276,51385.809231,271.185876,0.059371809,-0.060618727,0.694037425,0.714921262,-0.000291187,-0.018100989,0.000431214,0.000000,0.000000,0.000000,1.000000,1,1,1,232641.037462,15174.955565,175946.404729,-122.573776,-40227.445176,-784.355961,-1.203985,19.593015,15.802067
3.424144,540.052436,257.424158,30.796791,0.760864,2.895727,42334.965616,4822009011884.800781,175830.232610,3201364.158166,-2.467720,51386.211611,271.437497,0.059501312,-0.060757005,0.694029035,0.714906902,-0.000320000,-0.020519267,0.000394931,0.000000,0.000000,0.000000,1.000000,1,1,1,225702.596111,14313.784794,106455.955723,49.457877,15180.597076,352.565059,-1.110615,20.070220,8.976544
3.443647,540.656488,257.833803,30.972352,0.760200,2.887510,42259.466858,4822009011884.751953,176832.428171,3201369.455440,-2.489381,51386.603041,271.612567,0.059620478,-0.060884320,0.694021578,0.714893382,-0.000288833,-0.017944765,0.000449854,0.000000,0.000000,0.000000,1.000000,1,1,1,232213.172443,15253.992936,174940.125223,-124.518054,-39631.719638,-856.336465,-1.213573,19.553496,15.711926
3.463771,541.283191,258.259414,31.221488,0.761094,2.864701,42357.328097,4822009011884.701172,177866.532828,3201374.924756,-2.512794,51387.001552,271.861195,0.059747626,-0.061020100,0.694013416,0.714879114,-0.000316718,-0.020285518,0.000404994,0.000000,0.000000,0.000000,1.000000,1,1,1,233603.114443,15191.996369,187280.378569,-99.496186,-46980.740183,-785.182425,-1.209291,19.473063,16.935166
3.485009,541.950194,258.709290,31.497057,0.762103,2.841022,42467.868290,4822009011884.647461,178957.869745,3201380.702333,-2.537486,51387.421119,272.136227,0.059900119,-0.061182489,0.694002868,0.714862713,-0.000332459,-0.023221641,0.000365807,0.000000,0.000000,0.000000,1.000000,1,1,1,234736.526745,15087.477956,197090.381370,-70.495633,-51745.306822,-681.124587,-1.200584,19.407554,17.910931
3.505906,542.612326,259.152531,31.778077,0.763121,2.819139,42579.691955,4822009011884.594727,180031.762013,3201386.393296,-2.561740,51387.833137,272.416716,0.060070956,-0.061363765,0.693990377,0.714844966,-0.000335557,-0.026275018,0.000334592,0.000000,0.000000,0.000000,1.000000,1,1,1,235800.478615,15013.334088,205979.797247,-50.702812,-55544.017496,-631.912311,-1.194715,19.348767,18.797529
3.526227,543.261872,259.584056,32.060082,0.763926,2.799491,42667.876600,4822009011884.541992,181076.018021,3201391.932844,-2.585330,51388.233023,272.698204,0.060257697,-0.061561237,0.693976152,0.714826079,-0.000332200,-0.029300081,0.000303175,0.000000,0.000000,0.000000,1.000000,1,1,1,238571.566092,15014.600042,225779.314602,-48.620390,-67285.280164,-726.984928,-1.196123,19.268426,20.767945
3.548312,543.974628,260.054890,32.388121,0.768656,2.777797,43195.941765,4822009011884.484375,182210.937809,3201397.960102,-2.611074,51388.666554,273.025678,0.060486201,-0.061802067,0.693958060,0.714803564,-0.000329889,-0.033405033,0.000251917,0.000000,0.000000,0.000000,1.000000,1,1,1,224828.469596,14635.374331,104873.231392,45.839082,28930.175413,7.702437,-1.146543,19.972912,8.866601
3.567639,544.603888,260.459316,32.559977,0.766517,2.782522,42954.257036,4822009011884.433594,183204.098218,3201403.239991,-2.633232,51389.052556,273.197037,0.060675372,-0.062001388,0.693942918,0.714784971,-0.000301259,-0.028543180,0.000252965,0.000000,0.000000,0.000000,1.000000,1,1,1,237853.189905,15012.851323,223635.745514,-41.647481,-65291.577180,-766.211868,-1.198506,19.204187,20.572016
3.589800,545.330174,260.930789,32.887544,0.767653,2.760313,43079.731724,4822009011884.375000,184342.933263,3201409.299004,-2.659316,51389.486375,273.524033,0.060898123,-0.062235853,0.693924633,0.714763402,-0.000306286,-0.032441758,0.000174719,0.000000,0.000000,0.000000,1.000000,1,1,1,238673.964744,14839.652160,230221.618348,-2.478354,-66315.371830,-592.731881,-1.182785,19.153657,21.234585
3.610310,546.008828,261.367528,33.197268,0.772545,2.742635,43628.712249,4822009011884.320312,185396.962492,3201414.913222,-2.683403,51389.887180,273.833226,0.061129343,-0.062478575,0.693904885,0.714741660,-0.000299610,-0.035768764,0.000108641,0.000000,0.000000,0.000000,1.000000,1,1,1,224455.047807,14931.065718,104949.926455,9.835978,32729.021523,-350.104518,-1.177828,19.910280,8.904969
3.630241,546.674031,261.783787,33.375273,0.773779,2.749447,43766.351167,4822009011884.266602,186421.229216,3201420.374567,-2.706878,51390.284014,274.010712,0.061335340,-0.062695003,0.693886712,0.714722704,-0.000293261,-0.030096360,0.000052674,0.000000,0.000000,0.000000,1.000000,1,1,1,224386.166329,15019.704291,105700.451975,0.486944,27928.332640,-426.820998,-1.187365,19.882654,8.988158
3.649416,547.317309,262.183990,33.548121,0.774965,2.750607,43898.849299,4822009011884.213867,187406.640653,3201425.632003,-2.729646,51390.665262,274.183059,0.061502578,-0.062871264,0.693871467,0.714707649,-0.000292950,-0.025439636,-0.000012914,0.000000,0.000000,0.000000,1.000000,1,1,1,224305.044499,15071.403617,106213.805814,-1.257074,23913.811477,-424.197311,-1.193140,19.859305,9.045993
3.669187,547.984138,262.596388,33.727489,0.773608,2.746971,43743.420048,4822009011884.159180,188422.703425,3201431.056466,-2.753236,51391.057905,274.361910,0.061646849,-0.063023920,0.693857736,0.714695105,-0.000293753,-0.021328291,-0.000080108,0.000000,0.000000,0.000000,1.000000,1,1,1,232452.556798,14459.250023,191374.526690,96.096987,-45140.790153,122.021368,-1.148087,19.167103,17.417811
3.690169,548.695731,263.038057,34.006086,0.777495,2.724178,44182.235013,4822009011884.100586,189500.996841,3201436.817043,-2.777827,51391.467109,274.639956,0.061801610,-0.063187343,0.693842817,0.714681794,-0.000260651,-0.023595332,-0.000100283,0.000000,0.000000,0.000000,1.000000,1,1,1,224050.675247,15122.958944,106142.900177,-10.669100,22665.400828,-362.422629,-1.199278,19.823808,9.052064
3.709690,549.363007,263.444726,34.183303,0.778700,2.718983,44317.456844,4822009011884.045898,190504.198551,3201442.181640,-2.801238,51391.854082,274.816658,0.061933576,-0.063326810,0.693829632,0.714670826,-0.000267384,-0.019748001,-0.000156961,0.000000,0.000000,0.000000,1.000000,1,1,1,223949.905141,15132.037779,106413.320481,-3.641471,19238.553275,-281.747368,-1.200719,19.803996,9.084040
3.729101,550.029965,263.848868,34.360147,0.779898,2.710144,44452.014967,4822009011883.991211,191501.768959,3201447.519505,-2.824545,51392.238496,274.992988,0.062042943,-0.063442957,0.693818146,0.714662189,-0.000269683,-0.016500714,-0.000200782,0.000000,0.000000,0.000000,1.000000,1,1,1,223839.327297,15117.679697,106534.842255,4.753338,16274.501604,-166.947323,-1.199782,19.786652,9.100177
3.748733,550.708044,264.257382,34.539325,0.779522,2.698087,44407.314898,4822009011883.935547,192510.719278,3201452.921730,-2.848099,51392.626952,275.171644,0.062134670,-0.063540900,0.693808024,0.714655346,-0.000266694,-0.013722415,-0.000227061,0.000000,0.000000,0.000000,1.000000,1,1,1,228261.984811,14202.695194,160223.932860,153.221303,-28127.321901,807.679330,-1.121805,19.272712,14.365140
3.769125,551.415752,264.683446,34.779145,0.780580,2.674011,44526.045102,4822009011883.876953,193558.709421,3201458.536339,-2.871740,51393.025037,275.410922,0.062230391,-0.063642697,0.693797716,0.714647966,-0.000211829,-0.015004451,-0.000163552,0.000000,0.000000,0.000000,1.000000,1,1,1,228659.787809,14359.713185,165397.042429,107.965686,-31307.761558,636.743145,-1.138555,19.215858,14.876835
3.789693,552.134591,265.113270,35.025849,0.783644,2.650359,44874.307599,4822009011883.818359,194615.775613,3201464.204524,-2.895731,51393.425868,275.657076,0.062336605,-0.063754781,0.693786932,0.714639188,-0.000176384,-0.016473809,-0.000110127,0.000000,0.000000,0.000000,1.000000,1,1,1,223395.288719,15035.595659,105568.144956,-9.416061,16310.389477,41.854420,-1.192818,19.748233,9.016143
3.808956,552.812635,265.513384,35.200041,0.784830,2.639169,45008.338733,4822009011883.761719,195605.759054,3201469.517769,-2.918708,51393.806272,275.830752,0.062427238,-0.063850519,0.693777849,0.714631546,-0.000182247,-0.013741790,-0.000103715,0.000000,0.000000,0.000000,1.000000,1,1,1,223272.736716,15005.820635,105579.441053,1.294488,13755.013226,138.538237,-1.190355,19.732402,9.020309
3.827767,553.477977,265.903883,35.370229,0.784701,2.625868,44991.676821,4822009011883.706055,196572.529879,3201474.709586,-2.941100,51394.177457,276.000432,0.062501055,-0.063928896,0.693770432,0.714625288,-0.000181470,-0.011491840,-0.000082898,0.000000,0.000000,0.000000,1.000000,1,1,1,226767.408877,14571.199387,150853.538984,70.788792,-23872.733162,577.577267,-1.158550,19.272889,13.455281
3.848120,554.201160,266.327701,35.599443,0.787244,2.601846,45281.708326,4822009011883.645508,197618.600072,3201480.330490,-2.964965,51394.574267,276.229097,0.062581225,-0.064013845,0.693762704,0.714618170,-0.000154656,-0.012578904,-0.000015832,0.000000,0.000000,0.000000,1.000000,1,1,1,222977.862436,14919.817063,104983.266719,9.138729,12562.911251,307.159587,-1.182699,19.707783,8.966510
3.867787,554.904773,266.735491,35.776322,0.787280,2.587137,45283.822254,4822009011883.586914,198629.390318,3201485.766586,-2.988226,51394.961862,276.405442,0.062651316,-0.064088177,0.693756416,0.714611471,-0.000148859,-0.010430416,0.000032470,0.000000,0.000000,0.000000,1.000000,1,1,1,226209.502486,14844.829478,148018.429707,16.080467,-23344.217174,343.455572,-1.186010,19.261474,13.180390
3.889096,555.670638,267.178532,36.012735,0.788410,2.561768,45411.819173,4822009011883.522461,199724.532273,3201491.659823,-3.013416,51395.376894,276.641277,0.062728115,-0.064169532,0.693749897,0.714603761,-0.000137486,-0.011623723,0.000095857,0.000000,0.000000,0.000000,1.000000,1,1,1,226419.432021,14985.129796,151883.088529,-10.570931,-25750.848728,205.579442,-1.201151,19.210091,13.561366
3.910040,556.428357,267.613949,36.248561,0.791057,2.537651,45715.140221,4822009011883.458984,200800.993015,3201497.457397,-3.038288,51395.784192,276.876532,0.062812382,-0.064258497,0.693743166,0.714594899,-0.000133360,-0.012920209,0.000152992,0.000000,0.000000,0.000000,1.000000,1,1,1,222483.746372,14781.639189,103777.835028,29.929386,12706.472856,534.177079,-1.170498,19.671384,8.854846
3.929517,557.137730,268.017014,36.421560,0.790877,2.524182,45692.328432,4822009011883.399414,201802.028531,3201502.853440,-3.061085,51396.167328,277.048996,0.062884186,-0.064334351,0.693738148,0.714586631,-0.000114544,-0.010768191,0.000236202,0.000000,0.000000,0.000000,1.000000,1,1,1,226367.880271,15461.369964,154612.080899,-96.831454,-29298.856282,-304.243968,-1.249765,19.149901,13.832572
3.953994,558.033964,268.525433,36.699797,0.793760,2.494910,46023.482011,4822009011883.323242,203060.078573,3201509.639583,-3.090665,51396.642268,277.326561,0.062977966,-0.064433518,0.693731855,0.714575546,-0.000140838,-0.012755580,0.000262522,0.000000,0.000000,0.000000,1.000000,1,1,1,222130.760052,14692.709241,103009.065785,52.528950,12455.189588,677.054077,-1.162932,19.643862,8.783979
3.970941,558.658415,268.875627,36.849121,0.793568,2.483742,45999.401935,4822009011883.270508,203931.065454,3201514.341756,-3.110373,51396.975158,277.475417,0.063041283,-0.064500484,0.693728108,0.714567559,-0.000112105,-0.010920198,0.000354289,0.000000,0.000000,0.000000,1.000000,1,1,1,225326.629037,15569.303805,146672.552716,-111.291838,-23676.706332,-377.873012,-1.260254,19.181332,13.056958
3.991082,559.403698,269.293048,37.069569,0.796037,2.461455,46283.917263,4822009011883.208008,204966.248472,3201519.933442,-3.134751,51397.366010,277.695308,0.063117193,-0.064580844,0.693723868,0.714557716,-0.000133078,-0.012057629,0.000378854,0.000000,0.000000,0.000000,1.000000,1,1,1,221833.596057,14623.389956,102452.651799,64.438934,11727.657798,760.849606,-1.157239,19.619166,8.733050
4.010971,560.144444,269.703556,37.243815,0.796140,2.447697,46293.778302,4822009011883.145508,205988.510550,3201525.460044,-3.157767,51397.756220,277.869002,0.063185411,-0.064653058,0.693721063,0.714547880,-0.000091705,-0.010029332,0.000499894,0.000000,0.000000,0.000000,1.000000,1,1,1,224743.808098,15949.899028,143563.486469,-180.462301,-22702.405189,-792.391474,-1.298480,19.173598,12.754804
4.031556,560.914305,270.129499,37.465443,0.798517,2.424888,46568.498253,4822009011883.080078,207046.526840,3201531.183108,-3.183012,51398.155333,278.090057,0.063256928,-0.064728956,0.693718269,0.714537393,-0.000133624,-0.011188493,0.000496858,0.000000,0.000000,0.000000,1.000000,1,1,1,221502.541501,14541.600336,101825.274506,81.790686,10793.018302,864.894534,-1.150533,19.592433,8.674696
4.050727,561.635778,270.524653,37.632289,0.799690,2.411304,46703.237754,4822009011883.018555,208031.927304,3201536.517773,-3.205070,51398.530954,278.256366,0.063318406,-0.064794200,0.693716833,0.714527429,-0.000083006,-0.009389179,0.000629491,0.000000,0.000000,0.000000,1.000000,1,1,1,221353.481389,14505.234855,101687.401151,66.990599,9021.639275,842.876999,-1.147680,19.577910,8.662280
4.070046,562.366012,270.922566,37.800173,0.800870,2.396053,46839.117082,4822009011882.956055,209024.870744,3201541.896467,-3.227241,51398.909168,278.423707,0.063370405,-0.064849283,0.693717233,0.714517433,-0.000041223,-0.007873672,0.000759745,0.000000,0.000000,0.000000,1.000000,1,1,1,221196.359265,14460.031452,101385.791532,58.319167,7577.482983,839.896391,-1.143945,19.565868,8.633383
4.089218,563.093901,271.317208,37.966233,0.802041,2.379709,46974.075788,4822009011882.893555,210010.304417,3201547.237615,-3.249173,51399.284287,278.589227,0.063413777,-0.064895134,0.693719299,0.714507417,-0.000005118,-0.006610399,0.000888562,0.000000,0.000000,0.000000,1.000000,1,1,1,221035.286780,14409.572907,100997.778062,52.278757,6373.923973,845.907899,-1.139699,19.555314,8.595585
4.108940,563.846017,271.722903,38.136312,0.802913,2.361883,47074.075981,4822009011882.829102,211024.003142,3201552.735265,-3.271650,51399.669955,278.758749,0.063451064,-0.064934454,0.693723067,0.714496876,0.000028179,-0.005517304,0.001022024,0.000000,0.000000,0.000000,1.000000,1,1,1,222384.791093,17245.598946,123307.491464,-440.106346,-12715.818003,-2303.622441,-1.424913,19.295860,10.773951
4.129325,564.626353,272.142662,38.333871,0.804491,2.339020,47256.913281,4822009011882.762695,212071.825320,3201558.420842,-3.297743,51400.065855,278.955730,0.063489871,-0.064976163,0.693726685,0.714486124,-0.000100785,-0.006174415,0.000903878,0.000000,0.000000,0.000000,1.000000,1,1,1,220675.955887,14280.015618,99882.376702,118.423922,5893.964226,1115.378938,-1.128472,19.536993,8.486008
4.148326,565.357792,272.532983,38.495652,0.805649,2.322069,47390.942910,4822009011882.699219,213048.466911,3201563.724245,-3.319184,51400.437070,279.116970,0.063523292,-0.065012296,0.693730816,0.714475855,-0.000028166,-0.005200597,0.001073414,0.000000,0.000000,0.000000,1.000000,1,1,1,220509.745837,14226.773391,99451.326553,96.947135,4932.882982,1085.214668,-1.124011,19.527108,8.443418
4.167822,566.111527,272.933221,38.660823,0.806715,2.303978,47514.222559,4822009011882.633789,214050.588523,3201569.169180,-3.341098,51400.817775,279.281584,0.063552247,-0.065043240,0.693736788,0.714464665,0.000032840,-0.004364315,0.001242672,0.000000,0.000000,0.000000,1.000000,1,1,1,221501.054766,17737.794724,117047.743716,-521.655345,-10244.571839,-2819.584900,-1.474339,19.318600,10.160261
4.188191,566.901810,273.351661,38.850391,0.807841,2.281656,47644.627586,4822009011882.565430,215097.575573,3201574.860650,-3.367514,51401.213301,279.470570,0.063582738,-0.065076642,0.693742718,0.714453153,-0.000112206,-0.004910269,0.001098958,0.000000,0.000000,0.000000,1.000000,1,1,1,221485.756954,17356.668273,119164.464612,-398.128900,-11980.853215,-2217.433402,-1.438604,19.276920,10.365913
4.209043,567.714843,273.779768,39.045916,0.809348,2.259270,47820.148064,4822009011882.495117,216169.374134,3201580.690968,-3.394112,51401.617675,279.665496,0.063617506,-0.065115846,0.693747620,0.714441726,-0.000192752,-0.005584665,0.001025926,0.000000,0.000000,0.000000,1.000000,1,1,1,219945.591289,14016.378356,97651.648903,209.829862,5146.112509,1563.158520,-1.105849,19.500242,8.265328
4.228735,568.486964,274.183161,39.209248,0.810353,2.242309,47936.716439,4822009011882.427734,217181.603702,3201586.201462,-3.415888,51402.001682,279.828260,0.063648401,-0.065150136,0.693753584,0.714430057,-0.000059423,-0.004703456,0.001272171,0.000000,0.000000,0.000000,1.000000,1,1,1,220995.171002,17614.000749,116548.056473,-458.666332,-11061.707436,-2513.730578,-1.465190,19.273847,10.108667
4.248742,569.274070,274.593288,39.393189,0.811450,2.221476,48064.185791,4822009011882.359375,218209.988283,3201591.802528,-3.441566,51402.389444,280.011623,0.063680384,-0.065185918,0.693759671,0.714418032,-0.000155231,-0.005294419,0.001187456,0.000000,0.000000,0.000000,1.000000,1,1,1,220998.476576,17422.068165,118927.390661,-386.175158,-12908.405291,-2175.745175,-1.448112,19.229686,10.340077
4.269251,570.084816,275.013497,39.583503,0.812561,2.200561,48193.541406,4822009011882.289062,219264.233148,3201597.548238,-3.467652,51402.786409,280.201342,0.063717202,-0.065227643,0.693765068,0.714405700,-0.000210780,-0.006018008,0.001146120,0.000000,0.000000,0.000000,1.000000,1,1,1,220985.104834,17200.535288,121081.653229,-323.791971,-14431.196181,-1843.751942,-1.428083,19.187564,10.549762
4.289452,570.887171,275.427140,39.772455,0.813632,2.180561,48318.234297,4822009011882.218750,220302.618121,3201603.211267,-3.493084,51403.176877,280.389706,0.063758348,-0.065274220,0.693769785,0.714393193,-0.000232328,-0.006805343,0.001146281,0.000000,0.000000,0.000000,1.000000,1,1,1,221067.944183,17258.932246,124488.196203,-322.402124,-16833.561964,-1858.642594,-1.435824,19.132907,10.882194
4.310159,571.713641,275.850963,39.968986,0.814721,2.160524,48445.210892,4822009011882.146484,221367.034431,3201609.020212,-3.519181,51403.576461,280.585633,0.063806393,-0.065328209,0.693774146,0.714379734,-0.000246037,-0.007760437,0.001155368,0.000000,0.000000,0.000000,1.000000,1,1,1,221121.995659,17177.525560,127506.656780,-299.676723,-18740.376537,-1733.857926,-1.429788,19.081591,11.177048
4.330499,572.529412,276.267058,40.164443,0.816727,2.141523,48681.583661,4822009011882.074219,222412.573724,3201614.730047,-3.544707,51403.968324,280.780495,0.063860260,-0.065388201,0.693777958,0.714365730,-0.000245536,-0.008783562,0.001182931,0.000000,0.000000,0.000000,1.000000,1,1,1,218791.965095,13663.132012,94236.914478,313.160946,8211.863729,2141.911881,-1.076600,19.439078,7.929742
4.350466,573.334570,276.674203,40.323369,0.817237,2.129138,48739.904765,4822009011882.002930,223438.997208,3201620.339731,-3.566204,51404.356476,280.938834,0.063909916,-0.065441953,0.693784113,0.714350389,-0.000043756,-0.007357728,0.001525054,0.000000,0.000000,0.000000,1.000000,1,1,1,220691.997453,18356.442867,125979.594740,-574.547722,-18448.151403,-3255.259397,-1.547295,19.065742,11.028043
4.371464,574.184212,277.103098,40.522754,0.818323,2.109703,48867.010763,4822009011881.927734,224518.350291,3201626.241613,-3.593741,51404.760570,281.137599,0.063963513,-0.065500217,0.693790589,0.714333962,-0.000160377,-0.008411407,0.001410128,0.000000,0.000000,0.000000,1.000000,1,1,1,220731.532940,17824.423335,128999.985327,-435.225957,-20223.253268,-2551.638780,-1.497251,19.011314,11.323033
4.391809,575.011473,277.518436,40.718383,0.820442,2.091639,49117.846745,4822009011881.853516,225564.214979,3201631.964312,-3.619877,51405.151451,281.332627,0.064022244,-0.065564633,0.693795622,0.714317903,-0.000207103,-0.009495053,0.001371659,0.000000,0.000000,0.000000,1.000000,1,1,1,218210.572492,13554.759890,92874.728266,323.688212,9098.984729,2185.210277,-1.069190,19.400782,7.797341
4.411519,575.817062,277.919328,40.872653,0.821632,2.080781,49258.078597,4822009011881.782227,226577.409848,3201637.512362,-3.640950,51405.533837,281.486311,0.064075385,-0.065621587,0.693802693,0.714301040,-0.000001219,-0.007935584,0.001716194,0.000000,0.000000,0.000000,1.000000,1,1,1,218033.448747,13544.758365,92671.289576,236.258657,7687.451163,1902.480683,-1.069393,19.385287,7.777583
4.430500,576.595664,278.305077,41.020843,0.822779,2.069070,49393.253388,4822009011881.712891,227553.132843,3201642.857988,-3.661248,51405.901785,281.633936,0.064119006,-0.065667055,0.693812319,0.714283597,0.000143521,-0.006666769,0.002005078,0.000000,0.000000,0.000000,1.000000,1,1,1,217858.398642,13534.378857,92415.549097,173.831900,6517.198108,1663.016366,-1.069582,19.371314,7.752242
4.450028,577.399675,278.701634,41.172811,0.823958,2.055935,49532.445247,4822009011881.640625,228556.985471,3201648.360641,-3.682135,51406.280064,281.785320,0.064156985,-0.065705536,0.693824795,0.714264529,0.000253107,-0.005560098,0.002264891,0.000000,0.000000,0.000000,1.000000,1,1,1,217674.214746,13523.292862,92099.708119,125.515295,5473.615479,1444.478012,-1.069802,19.357766,7.720596
4.469654,578.210727,279.099869,41.324927,0.825142,2.041859,49672.446517,4822009011881.568359,229565.909575,3201653.894027,-3.703131,51406.659986,281.936847,0.064189206,-0.065737263,0.693839561,0.714244371,0.000332652,-0.004625941,0.002491708,0.000000,0.000000,0.000000,1.000000,1,1,1,217485.502183,13512.041014,91738.711688,89.390693,4570.352574,1250.068609,-1.070075,19.344821,7.684170
4.488827,579.005888,279.488590,41.472834,0.826299,2.027460,49809.306216,4822009011881.497070,230551.544717,3201659.302471,-3.723648,51407.030888,282.084177,0.064215873,-0.065762791,0.693855801,0.714223847,0.000388010,-0.003863945,0.002683470,0.000000,0.000000,0.000000,1.000000,1,1,1,217298.145448,13501.171388,91352.581026,63.224588,3812.625831,1081.858281,-1.070409,19.332676,7.645022
4.508230,579.813480,279.881661,41.621758,0.827468,2.012374,49947.894201,4822009011881.424805,231549.014939,3201664.778696,-3.744417,51407.406004,282.232515,0.064238696,-0.065784005,0.693873825,0.714202331,0.000427648,-0.003220647,0.002851422,0.000000,0.000000,0.000000,1.000000,1,1,1,217105.861306,13490.477968,90934.241220,43.420233,3151.990574,930.220877,-1.070827,19.320784,7.602456
4.527433,580.615556,280.270360,41.768330,0.828893,1.997076,50117.511661,4822009011881.352539,232536.202395,3201670.201232,-3.764980,51407.777023,282.378505,0.064257873,-0.065801299,0.693892983,0.714180399,0.000454602,-0.002694299,0.002994345,0.000000,0.000000,0.000000,1.000000,1,1,1,217651.799803,22403.716726,102155.534797,-1460.867320,-6665.118662,-8800.448696,-1.949895,19.195972,8.695667
4.548193,581.485209,280.690892,41.937668,0.829874,1.978417,50233.539934,4822009011881.274414,233603.396431,3201676.065769,-3.796340,51408.176693,282.547213,0.064277548,-0.065821983,0.693911270,0.714158955,-0.000024826,-0.003061995,0.002329746,0.000000,0.000000,0.000000,1.000000,1,1,1,216697.365915,13405.281080,89921.744388,253.225953,2885.741149,1496.893416,-1.065473,19.297888,7.499631
4.567890,582.314166,281.088901,42.085987,0.831313,1.963079,50405.356203,4822009011881.199219,234615.983750,3201681.633972,-3.817326,51408.556801,282.694932,0.064294390,-0.065840736,0.693927777,0.714139670,0.000136115,-0.002567735,0.002565618,0.000000,0.000000,0.000000,1.000000,1,1,1,217160.386623,21024.638001,100557.081503,-1100.748400,-6443.624067,-6915.857592,-1.817538,19.171828,8.534735
4.588492,583.183749,281.505434,42.251330,0.832294,1.945074,50521.604011,4822009011881.120117,235675.148366,3201687.460758,-3.847016,51408.952967,282.859646,0.064311790,-0.065861674,0.693943608,0.714120789,-0.000168022,-0.002934066,0.002103853,0.000000,0.000000,0.000000,1.000000,1,1,1,216281.232202,13306.000006,88923.582175,334.977735,2648.279788,1841.973691,-1.058556,19.274047,7.397958
4.608208,584.019648,281.903121,42.397791,0.833476,1.930116,50662.575473,4822009011881.043945,236688.721474,3201693.040421,-3.867887,51409.332970,283.005502,0.064327518,-0.065880342,0.693958921,0.714102771,0.000045060,-0.002480047,0.002394374,0.000000,0.000000,0.000000,1.000000,1,1,1,216078.828067,13278.121802,88493.722564,245.772981,2155.868950,1620.673470,-1.057191,19.261545,7.353823
4.627950,584.859526,282.300984,42.543575,0.834659,1.914942,50803.870207,4822009011880.966797,237703.636563,3201698.630296,-3.888757,51409.713225,283.150679,0.064341669,-0.065895517,0.693976393,0.714083116,0.000201613,-0.002109954,0.002650334,0.000000,0.000000,0.000000,1.000000,1,1,1,215874.197268,13255.455273,88050.087174,178.687396,1735.131560,1414.539694,-1.056415,19.249180,7.308184
4.647865,585.709696,282.701990,42.689733,0.835852,1.899520,50946.524923,4822009011880.888672,238727.479628,3201704.272201,-3.909796,51410.096577,283.296223,0.064354536,-0.065908039,0.693995889,0.714061853,0.000316443,-0.001809462,0.002875707,0.000000,0.000000,0.000000,1.000000,1,1,1,215665.988244,13237.430436,87593.008980,127.821609,1373.768696,1221.597020,-1.056177,19.236793,7.261077
4.667571,586.553771,283.098430,42.833431,0.837032,1.884225,51087.779645,4822009011880.811523,239740.578752,3201709.857680,-3.930609,51410.475659,283.439310,0.064366105,-0.065918339,0.694016736,0.714039597,0.000397729,-0.001574043,0.003068298,0.000000,0.000000,0.000000,1.000000,1,1,1,215458.390246,13223.836451,87134.835366,90.112347,1070.652771,1045.431237,-1.056423,19.224560,7.213781
4.687033,587.390117,283.489603,42.974427,0.838706,1.869143,51289.690861,4822009011880.734375,240741.116344,3201715.376596,-3.951169,51410.849799,283.579702,0.064376595,-0.065926972,0.694038605,0.714016598,0.000454332,-0.001392835,0.003231072,0.000000,0.000000,0.000000,1.000000,1,1,1,215651.917496,22736.244372,92801.544116,-1528.142103,-4043.425784,-9338.546370,-1.992701,19.167096,7.764553
4.707312,588.263893,283.897400,43.126457,0.839408,1.852542,51372.806048,4822009011880.654297,241783.705179,3201721.129703,-3.982093,51411.238957,283.731101,0.064386817,-0.065938152,0.694058947,0.713994871,-0.000025164,-0.001677281,0.002545375,0.000000,0.000000,0.000000,1.000000,1,1,1,215032.346230,13136.897457,86156.071317,287.795206,1013.710558,1602.458376,-1.051097,19.200069,7.112882
4.727190,589.123980,284.296208,43.268468,0.840594,1.837734,51515.346556,4822009011880.575195,242805.666619,3201726.772528,-4.002986,51411.620617,283.872491,0.064396475,-0.065949504,0.694077961,0.713974468,0.000159405,-0.001502060,0.002800204,0.000000,0.000000,0.000000,1.000000,1,1,1,214819.721701,13115.534793,85710.270152,208.413357,770.018726,1389.576246,-1.050533,19.187136,7.066658
4.746860,589.977826,284.690483,43.408087,0.842271,1.823156,51718.383774,4822009011880.496094,243816.956245,3201732.359120,-4.023651,51411.998033,284.011494,0.064405919,-0.065959047,0.694098481,0.713952786,0.000291676,-0.001370344,0.003018875,0.000000,0.000000,0.000000,1.000000,1,1,1,214994.165467,22275.395936,91542.890525,-1388.512172,-4415.643102,-8662.401505,-1.952328,19.123677,7.633033
4.767607,590.880714,285.106471,43.560744,0.843394,1.806893,51853.397112,4822009011880.412109,244883.561492,3201738.253587,-4.054801,51412.395300,284.163499,0.064415774,-0.065971347,0.694117970,0.713931813,-0.000122863,-0.001717505,0.002399029,0.000000,0.000000,0.000000,1.000000,1,1,1,214806.311575,20389.165523,92590.630103,-901.916698,-5401.483188,-6072.823799,-1.769587,19.081000,7.731197
4.788387,591.788293,285.522665,43.714127,0.844526,1.790975,51989.761846,4822009011880.328125,245951.963943,3201744.161101,-4.084038,51412.792651,284.316227,0.064426640,-0.065988016,0.694133670,0.713914027,-0.000308235,-0.002130823,0.002048884,0.000000,0.000000,0.000000,1.000000,1,1,1,214664.744318,19451.618836,94140.418500,-666.234442,-6700.667921,-4727.039635,-1.679826,19.036261,7.878775
4.809561,592.716311,285.946284,43.871422,0.845656,1.775129,52126.044324,4822009011880.241211,247040.554609,3201750.183479,-4.112809,51413.196888,284.472853,0.064440321,-0.066009011,0.694147335,0.713897565,-0.000382340,-0.002640741,0.001843160,0.000000,0.000000,0.000000,1.000000,1,1,1,214531.373589,18677.239654,95774.157779,-501.573349,-7957.936085,-3675.999751,-1.606003,18.991115,8.034788
4.830305,593.628743,286.360898,44.026615,0.846760,1.760045,52259.303268,4822009011880.155273,248107.092960,3201756.087018,-4.140163,51413.592316,284.627388,0.064457362,-0.066033577,0.694159345,0.713882076,-0.000382374,-0.003214028,0.001754894,0.000000,0.000000,0.000000,1.000000,1,1,1,214429.772923,18337.870161,97778.838035,-440.310717,-9410.341822,-3196.567918,-1.574855,18.943391,8.227334
4.850841,594.535160,286.770958,44.181724,0.847842,1.745548,52389.937901,4822009011880.069336,249162.898062,3201761.934262,-4.166860,51413.983122,284.781844,0.064478582,-0.066062073,0.694170467,0.713866708,-0.000356073,-0.003864995,0.001723377,0.000000,0.000000,0.000000,1.000000,1,1,1,214343.795285,18115.774675,99968.443662,-409.501675,-10899.705785,-2896.011497,-1.555222,18.893980,8.438206
4.871000,595.428064,287.173146,44.335649,0.848893,1.731783,52517.010273,4822009011879.985352,250199.364697,3201767.677447,-4.192817,51414.366118,284.935126,0.064504252,-0.066094561,0.694180905,0.713851232,-0.000318560,-0.004581091,0.001727934,0.000000,0.000000,0.000000,1.000000,1,1,1,214288.943379,18070.337836,102589.696647,-413.618090,-12628.004002,-2823.153274,-1.553015,18.840061,8.691477
4.891021,596.317934,287.572249,44.490620,0.849912,1.718568,52640.230752,4822009011879.901367,251228.736810,3201773.384349,-4.218526,51414.745799,285.089457,0.064535060,-0.066131801,0.694190924,0.713835256,-0.000283161,-0.005382478,0.001745774,0.000000,0.000000,0.000000,1.000000,1,1,1,214306.996166,18295.059640,106372.760935,-463.536334,-15157.658040,-3060.956741,-1.577658,18.772669,9.058328
4.911646,597.237958,287.983108,44.653626,0.851545,1.705327,52839.778392,4822009011879.813477,252289.186881,3201779.266787,-4.245226,51415.136085,285.251802,0.064573095,-0.066176230,0.694200825,0.713818069,-0.000264061,-0.006363616,0.001750143,0.000000,0.000000,0.000000,1.000000,1,1,1,212778.495708,12554.133807,81582.314793,524.848816,5209.983636,3184.125947,-1.007862,19.056177,6.642904
4.931390,598.122181,288.375230,44.785418,0.852304,1.697320,52931.109861,4822009011879.729492,253304.317108,3201784.901290,-4.265124,51415.512324,285.382957,0.064609598,-0.066215724,0.694213260,0.713799010,0.000070282,-0.005469152,0.002253051,0.000000,0.000000,0.000000,1.000000,1,1,1,213925.715157,19924.689583,106595.392544,-879.147598,-15601.058882,-5246.587417,-1.740434,18.733036,9.077163
4.952297,599.060975,288.790946,44.950250,0.853948,1.684181,53132.379233,4822009011879.639648,254379.286570,3201790.870338,-4.293868,51415.907162,285.547115,0.064650335,-0.066260018,0.694226264,0.713778564,-0.000099392,-0.006487963,0.002042057,0.000000,0.000000,0.000000,1.000000,1,1,1,212328.401623,12506.983617,81023.382211,461.124945,5429.800737,2970.738471,-1.006152,19.020039,6.585252
4.972213,599.958840,289.185652,45.082050,0.854713,1.676487,53224.636763,4822009011879.553711,255403.311606,3201796.560008,-4.313907,51416.285972,285.678269,0.064688427,-0.066299708,0.694240700,0.713757386,0.000196949,-0.005547602,0.002515379,0.000000,0.000000,0.000000,1.000000,1,1,1,213485.779207,20623.927691,106262.908327,-1048.285530,-15590.239513,-6242.170806,-1.812099,18.695142,9.041496
4.992950,600.896075,289.597125,45.244584,0.855652,1.663795,53338.520760,4822009011879.463867,256469.510110,3201802.486352,-4.343152,51416.676808,285.840130,0.064729722,-0.066343625,0.694255115,0.713735541,-0.000044617,-0.006540865,0.002206092,0.000000,0.000000,0.000000,1.000000,1,1,1,213747.813469,20836.166252,114357.808186,-987.546399,-21300.147322,-6216.782527,-1.837172,18.572421,9.828790
5.016760,601.976602,290.069374,45.440112,0.856741,1.649166,53470.819757,4822009011879.360352,257693.748775,3201809.295447,-4.376998,51417.123905,286.034883,0.064785843,-0.066405865,0.694268143,0.713711988,-0.000254004,-0.008167212,0.001884232,0.000000,0.000000,0.000000,1.000000,1,1,1,213740.037563,18923.265420,118639.434820,-575.494324,-23380.953122,-3876.427480,-1.652828,18.486222,10.244411
5.038340,602.959912,290.496910,45.621316,0.859021,1.637036,53752.557243,4822009011879.265625,258803.338095,3201815.470789,-4.405651,51417.527979,286.215383,0.064847452,-0.066474573,0.694277363,0.713691027,-0.000263292,-0.009679336,0.001824687,0.000000,0.000000,0.000000,1.000000,1,1,1,211348.873305,12396.544990,79666.176314,562.126546,8863.579316,3266.467731,-1.001549,18.943023,6.447806
5.057780,603.849260,290.880386,45.747303,0.859182,1.633116,53769.744118,4822009011879.179688,259802.930392,3201821.037411,-4.425122,51417.896242,286.340732,0.064901774,-0.066532194,0.694288444,0.713669940,0.000089337,-0.008180971,0.002332669,0.000000,0.000000,0.000000,1.000000,1,1,1,213272.655871,20278.364342,118019.505078,-939.132000,-22879.519382,-5755.370623,-1.788644,18.450721,10.182542
5.079125,604.828354,291.302363,45.925511,0.860185,1.621366,53892.101988,4822009011879.084961,260900.429807,3201827.151860,-4.454941,51418.295077,286.518239,0.064963925,-0.066598383,0.694300257,0.713646619,-0.000096022,-0.009604541,0.002076495,0.000000,0.000000,0.000000,1.000000,1,1,1,213278.772090,19007.611295,121992.871984,-646.701059,-24789.624618,-4181.949749,-1.667017,18.372728,10.568924
5.099269,605.755860,291.700220,46.097233,0.861085,1.611178,54001.721931,4822009011878.995117,261936.207495,3201832.925868,-4.481850,51418.670494,286.689298,0.065031392,-0.066671220,0.694309201,0.713624972,-0.000146881,-0.010982646,0.001981067,0.000000,0.000000,0.000000,1.000000,1,1,1,213474.146265,18798.021608,128279.157996,-588.402938,-28490.331509,-3900.129452,-1.649952,18.273268,11.181962
5.119634,606.697128,292.102228,46.276792,0.863797,1.601394,54339.268660,4822009011878.903320,262983.361701,3201838.766819,-4.508886,51419.048820,286.868185,0.065109407,-0.066755291,0.694316719,0.713602683,-0.000169974,-0.012570752,0.001913976,0.000000,0.000000,0.000000,1.000000,1,1,1,210415.837480,12387.852097,78774.061911,532.045088,12297.522472,3113.136097,-1.006713,18.860359,6.359437
5.139074,607.599156,292.483928,46.401064,0.863543,1.600509,54304.286172,4822009011878.815430,263982.952022,3201844.345922,-4.528456,51419.415464,286.991812,0.065179795,-0.066828477,0.694326816,0.713579584,0.000163819,-0.010491948,0.002398102,0.000000,0.000000,0.000000,1.000000,1,1,1,212853.050953,20018.640284,125522.548446,-917.455914,-26466.709516,-5639.283561,-1.771968,18.259881,10.912914
5.159219,608.536329,292.880643,46.575884,0.864356,1.590804,54403.396174,4822009011878.723633,265018.818053,3201850.129864,-4.556505,51419.789104,287.165964,0.065254241,-0.066906232,0.694336958,0.713555624,-0.000012439,-0.011892541,0.002152101,0.000000,0.000000,0.000000,1.000000,1,1,1,213240.698127,19775.243259,134564.573517,-804.432294,-32275.705657,-5207.778529,-1.752485,18.127705,11.795231
5.180702,609.539727,293.303580,46.771498,0.867373,1.580592,54780.432165,4822009011878.625977,266123.446431,3201856.301712,-4.586220,51420.185904,287.360863,0.065344291,-0.067001798,0.694344962,0.713530627,-0.000133100,-0.013783981,0.001943512,0.000000,0.000000,0.000000,1.000000,1,1,1,209710.822313,12435.228277,78382.735547,512.792712,14105.162043,2930.024780,-1.016098,18.791818,6.321728
5.200332,610.460309,293.687642,46.896252,0.866941,1.580925,54722.771289,4822009011878.535156,267132.847150,3201861.945127,-4.606166,51420.554793,287.484960,0.065421583,-0.067081704,0.694354621,0.713506637,0.000191788,-0.011376259,0.002403626,0.000000,0.000000,0.000000,1.000000,1,1,1,212408.470415,20147.741648,129391.807610,-946.192076,-28266.399036,-5896.623931,-1.790821,18.135037,11.290378
5.220628,611.414591,294.086055,47.075896,0.867815,1.571551,54829.973914,4822009011878.441406,268176.482161,3201867.782379,-4.634719,51420.929247,287.663925,0.065502584,-0.067165923,0.694364131,0.713482027,-0.000000696,-0.012812262,0.002120747,0.000000,0.000000,0.000000,1.000000,1,1,1,212632.102320,19375.502567,136139.902267,-736.175471,-32188.963109,-4861.638722,-1.718823,18.026746,11.948874
5.241167,612.384057,294.488995,47.264188,0.870902,1.562561,55217.401776,4822009011878.345703,269232.594258,3201873.693143,-4.662892,51421.306843,287.851528,0.065594237,-0.067262684,0.694371033,0.713457775,-0.000096819,-0.014471725,0.001937418,0.000000,0.000000,0.000000,1.000000,1,1,1,209004.576403,12501.769568,78111.281200,490.091114,15476.176722,2746.567045,-1.027360,18.720597,6.296238
5.260760,613.312560,294.870952,47.388216,0.870344,1.563589,55143.517070,4822009011878.253906,270240.131792,3201879.335618,-4.683021,51421.673648,287.974894,0.065674674,-0.067345477,0.694380114,0.713433726,0.000213121,-0.011834905,0.002367921,0.000000,0.000000,0.000000,1.000000,1,1,1,211870.144886,20254.411059,131944.691239,-968.741911,-29305.890881,-6098.028583,-1.807007,18.024290,11.539688
5.281416,614.294001,295.275074,47.573399,0.873243,1.554194,55508.139238,4822009011878.156250,271302.306230,3201885.286621,-4.712365,51422.052856,288.159381,0.065760130,-0.067434045,0.694389068,0.713408773,0.000004161,-0.013285254,0.002050236,0.000000,0.000000,0.000000,1.000000,1,1,1,208534.960721,12557.879322,78117.815477,436.318910,14803.562529,2501.928441,-1.036100,18.669894,6.297184
5.300473,615.202899,295.645659,47.694051,0.872855,1.554143,55455.661736,4822009011878.066406,272282.260776,3201890.780349,-4.732110,51422.408647,288.279386,0.065832091,-0.067507399,0.694398982,0.713385549,0.000272551,-0.010832116,0.002431670,0.000000,0.000000,0.000000,1.000000,1,1,1,211058.255916,20459.102462,127013.078779,-1026.277311,-25979.791485,-6440.946707,-1.828853,18.029954,11.057813
5.321026,616.185648,296.046589,47.873303,0.873792,1.544546,55571.410434,4822009011877.968750,273339.132910,3201896.707753,-4.761614,51422.785510,288.457941,0.065909490,-0.067587166,0.694408899,0.713361196,0.000034041,-0.012024816,0.002071866,0.000000,0.000000,0.000000,1.000000,1,1,1,211135.587100,19328.205528,132039.888411,-737.060362,-28800.074859,-4942.951275,-1.721230,17.937915,11.547451
5.341538,617.170174,296.446374,48.056941,0.876732,1.535489,55942.571275,4822009011877.871094,274393.925942,3201902.627158,-4.789965,51423.160459,288.640882,0.065994315,-0.067676440,0.694415871,0.713338102,-0.000072013,-0.013344308,0.001860574,0.000000,0.000000,0.000000,1.000000,1,1,1,207810.180625,12599.032639,77791.396472,466.560888,15531.194267,2530.447458,-1.044776,18.598448,6.264994
5.360846,618.100394,296.820442,48.178566,0.877847,1.535526,56081.730657,4822009011877.778320,275386.804498,3201908.202533,-4.810137,51423.519556,288.761846,0.066066327,-0.067750346,0.694424674,0.713315850,0.000218732,-0.010736708,0.002251421,0.000000,0.000000,0.000000,1.000000,1,1,1,207587.683527,12637.876061,78010.230333,327.809530,13213.506038,2098.223533,-1.050180,18.570707,6.285803
5.380508,619.050118,297.200912,48.302832,0.878982,1.532962,56223.532905,4822009011877.683594,276397.899303,3201913.882590,-4.830786,51423.884692,288.885437,0.066125476,-0.067808558,0.694437553,0.713292301,0.000426801,-0.008477539,0.002581494,0.000000,0.000000,0.000000,1.000000,1,1,1,207354.736365,12670.360421,78097.804425,224.613847,11182.422473,1723.671772,-1.055027,18.544816,6.293021
5.400151,620.001384,297.580559,48.427124,0.880115,1.528243,56365.257836,4822009011877.587891,277408.043898,3201919.559696,-4.851510,51424.248975,289.009053,0.066172357,-0.067852537,0.694453648,0.713268100,0.000569268,-0.006567432,0.002852411,0.000000,0.000000,0.000000,1.000000,1,1,1,207116.508101,12696.559230,78072.050868,150.181285,9443.195672,1406.790387,-1.059289,18.520916,6.288528
5.419106,620.921568,297.946447,48.546974,0.881208,1.522035,56502.042044,4822009011877.495117,278382.777063,3201925.040009,-4.871589,51424.600031,289.128250,0.066207835,-0.067883982,0.694471654,0.713244284,0.000661209,-0.005010954,0.003065780,0.000000,0.000000,0.000000,1.000000,1,1,1,206882.195170,12716.672498,77959.207292,98.603741,8006.355739,1148.201120,-1.062922,18.499375,6.275089
5.438248,621.853155,298.315515,48.667753,0.882362,1.514370,56646.837630,4822009011877.401367,279367.147789,3201930.576769,-4.891935,51424.954144,289.248367,0.066235107,-0.067906345,0.694491921,0.713219890,0.000722190,-0.003678255,0.003241653,0.000000,0.000000,0.000000,1.000000,1,1,1,207485.639327,23918.414338,94307.331948,-1805.346361,-6392.443992,-11072.546306,-2.168857,18.282687,7.862271
5.460421,622.934783,298.743411,48.825019,0.883570,1.501700,56798.232166,4822009011877.291992,280507.404997,3201936.992804,-4.927800,51425.361703,289.404865,0.066261983,-0.067931552,0.694512187,0.713195257,0.000098401,-0.003643155,0.002341819,0.000000,0.000000,0.000000,1.000000,1,1,1,207058.595944,20105.257659,92499.664786,-909.309302,-5293.727133,-6180.785460,-1.796417,18.264137,7.681560
5.480674,623.925708,299.133469,48.966381,0.884740,1.490517,56945.241134,4822009011877.192383,281548.931324,3201942.856198,-4.956727,51425.733570,289.545524,0.066283991,-0.067956285,0.694526209,0.713177202,-0.000082635,-0.003513671,0.001989637,0.000000,0.000000,0.000000,1.000000,1,1,1,206746.601304,19075.644439,91619.313454,-660.805279,-4982.730522,-4744.792160,-1.696771,18.246849,7.592189
5.501108,624.928367,299.526432,49.107689,0.885916,1.479346,57093.213064,4822009011877.090820,282599.761877,3201948.774803,-4.984840,51426.108382,289.686120,0.066304598,-0.067980826,0.694538473,0.713161004,-0.000152002,-0.003363352,0.001785469,0.000000,0.000000,0.000000,1.000000,1,1,1,205821.696467,12511.909529,76594.659420,496.465266,6562.149899,2539.656007,-1.049086,18.418759,6.129135
5.520401,625.878096,299.896482,49.226614,0.887019,1.470653,57232.115280,4822009011876.994141,283591.937191,3201954.366024,-5.005080,51426.463736,289.804370,0.066319408,-0.067996731,0.694552108,0.713144831,0.000157015,-0.002262451,0.002177445,0.000000,0.000000,0.000000,1.000000,1,1,1,205572.364783,12484.217826,76342.308276,359.398619,5504.475291,2219.856543,-1.047725,18.398842,6.101018
5.540056,626.848042,300.273021,49.347222,0.888143,1.460866,57373.728466,4822009011876.895508,284602.764609,3201960.064673,-5.025674,51426.825377,289.924289,0.066329439,-0.068005013,0.694569211,0.713126450,0.000384924,-0.001321628,0.002526511,0.000000,0.000000,0.000000,1.000000,1,1,1,205315.344357,12460.731991,76033.291360,255.476490,4580.181669,1923.049231,-1.046882,18.379439,6.066981
5.559842,627.826791,300.651572,49.467957,0.889273,1.450270,57516.344415,4822009011876.795898,285620.283730,3201965.803382,-5.046387,51427.189026,290.044328,0.066335067,-0.068006870,0.694589201,0.713106280,0.000548002,-0.000533597,0.002830908,0.000000,0.000000,0.000000,1.000000,1,1,1,205054.010719,12441.488011,75679.747214,178.181290,3785.445237,1651.851484,-1.046541,18.360625,6.028296
5.578832,628.768380,301.014444,49.583105,0.890357,1.439577,57653.259607,4822009011876.699219,286596.903819,3201971.313560,-5.066261,51427.537698,290.158807,0.066336923,-0.068003857,0.694610550,0.713085599,0.000657163,0.000091526,0.003081864,0.000000,0.000000,0.000000,1.000000,1,1,1,204801.101230,12426.673010,75309.515338,123.605081,3135.718012,1416.655065,-1.046638,18.343076,5.987937
5.598098,629.725856,301.382126,49.699146,0.892413,1.428314,57916.505408,4822009011876.601562,287587.690771,3201976.905854,-5.086425,51427.891088,290.274168,0.066335675,-0.067996817,0.694634094,0.713063452,0.000733978,0.000616874,0.003300204,0.000000,0.000000,0.000000,1.000000,1,1,1,204385.807008,22895.146131,70608.829567,-1665.181544,5985.142872,-10017.476304,-2.073236,18.417198,5.527479
5.618147,630.724072,301.764630,49.814861,0.892596,1.417010,57936.565996,4822009011876.499023,288618.814430,3201982.727539,-5.117706,51428.259431,290.389172,0.066329473,-0.067987511,0.694656569,0.713043022,0.000222053,0.001362713,0.002593032,0.000000,0.000000,0.000000,1.000000,1,1,1,204272.618968,12320.895886,74511.586262,327.379204,1780.092917,1961.389600,-1.039523,18.306998,5.900705
5.638125,631.721614,302.144922,49.933452,0.893731,1.404469,58080.421082,4822009011876.396484,289646.232027,3201988.531156,-5.138473,51428.625160,290.507053,0.066318982,-0.067974524,0.694678671,0.713023702,0.000433005,0.001671957,0.002906498,0.000000,0.000000,0.000000,1.000000,1,1,1,204000.828178,12287.920646,74042.344114,231.605508,1397.080999,1701.825984,-1.037845,18.289767,5.849882
5.658088,632.720764,302.524437,50.050943,0.894864,1.391871,58224.225223,4822009011876.293945,290672.896888,3201994.332811,-5.159192,51428.990274,290.623833,0.066307693,-0.067958966,0.694702953,0.713002578,0.000582119,0.001914495,0.003178273,0.000000,0.000000,0.000000,1.000000,1,1,1,203727.968942,12262.871635,73566.172124,160.821004,1073.083508,1459.869092,-1.037025,18.272626,5.798287
5.677286,633.683817,302.888946,50.162947,0.895953,1.379761,58362.548752,4822009011876.194336,291660.268629,3201999.914521,-5.179101,51429.341083,290.735152,0.066296177,-0.067942256,0.694728017,0.712980819,0.000681679,0.002093670,0.003402478,0.000000,0.000000,0.000000,1.000000,1,1,1,203464.518078,12245.188477,73104.980065,110.510682,809.787149,1244.587769,-1.036935,18.256148,5.748276
5.696251,634.637191,303.248548,50.272637,0.897028,1.367846,58499.192767,4822009011876.095703,292635.590226,3202005.430141,-5.198766,51429.687296,290.844163,0.066284257,-0.067924521,0.694754179,0.712958125,0.000749240,0.002227244,0.003591281,0.000000,0.000000,0.000000,1.000000,1,1,1,203203.380189,12233.168695,72648.571720,73.212512,588.772899,1047.801290,-1.037442,18.239834,5.698732
5.715462,635.605114,303.612381,50.382808,0.898116,1.355860,58637.617990,4822009011875.995117,293623.636909,3202011.019788,-5.218697,51430.037710,290.953644,0.066271730,-0.067905680,0.694781875,0.712934095,0.000794562,0.002325645,0.003752298,0.000000,0.000000,0.000000,1.000000,1,1,1,202937.996512,12225.806575,72187.305397,44.715090,398.417752,863.798078,-1.038482,18.223232,5.648600
5.734543,636.568529,303.973280,50.491275,0.900569,1.344075,58954.832411,4822009011875.895508,294604.975986,3202016.573508,-5.238512,51430.385426,291.061425,0.066258951,-0.067886419,0.694810338,0.712909377,0.000822031,0.002391797,0.003884131,0.000000,0.000000,0.000000,1.000000,1,1,1,202242.786631,24483.383945,59439.855927,-2014.617014,10019.263633,-12405.022079,-2.237716,18.423743,4.407366
5.754591,637.582355,304.352289,50.592303,0.900325,1.333630,58919.248609,4822009011875.790039,295636.058338,3202022.410278,-5.271367,51430.752609,291.161729,0.066240364,-0.067864834,0.694837174,0.712887004,0.000178139,0.003285962,0.002945173,0.000000,0.000000,0.000000,1.000000,1,1,1,202397.545616,12120.007494,71360.658270,331.605389,-738.787328,1671.095905,-1.031707,18.187224,5.557142
5.774074,638.570143,304.719813,50.701276,0.902957,1.321074,59260.639481,4822009011875.686523,296638.071629,3202028.084984,-5.291468,51431.106944,291.269997,0.066219534,-0.067842337,0.694861729,0.712867146,0.000386482,0.003160810,0.003205624,0.000000,0.000000,0.000000,1.000000,1,1,1,201519.654222,22511.867293,54709.792902,-1509.968639,12114.298601,-9699.763357,-2.046488,18.437632,3.936229
5.794496,639.607130,305.104697,50.798399,0.902570,1.310613,59205.925357,4822009011875.578125,297688.401800,3202034.034849,-5.322884,51431.480752,291.366379,0.066193296,-0.067816336,0.694885646,0.712848743,-0.000032809,0.004171388,0.002531578,0.000000,0.000000,0.000000,1.000000,1,1,1,201841.869881,11972.503288,70485.813420,447.985926,-1846.287780,2218.214947,-1.020522,18.150887,5.460160
5.814145,640.607431,305.474367,50.906405,0.903673,1.297533,59347.071932,4822009011875.472656,298699.033054,3202039.762282,-5.342937,51431.837415,291.473670,0.066166811,-0.067789489,0.694908493,0.712831484,0.000251088,0.003855914,0.002880282,0.000000,0.000000,0.000000,1.000000,1,1,1,201563.949824,11925.563908,69950.567100,322.773425,-1673.272438,1947.856875,-1.017424,18.134663,5.402110
5.833736,641.606809,305.842428,51.012951,0.904772,1.285042,59487.867561,4822009011875.367188,299706.630312,3202045.474555,-5.362869,51432.192688,291.579502,0.066143566,-0.067763523,0.694933352,0.712811876,0.000454998,0.003570876,0.003185550,0.000000,0.000000,0.000000,1.000000,1,1,1,201286.776297,11892.274321,69443.438278,229.430509,-1523.545926,1686.734180,-1.015762,18.117952,5.346892
5.853484,642.616295,306.212938,51.119261,0.905880,1.272963,59629.834371,4822009011875.260742,300722.308174,3202051.234683,-5.382928,51432.550477,291.685091,0.066122779,-0.067738361,0.694960210,0.712790010,0.000601079,0.003309276,0.003452002,0.000000,0.000000,0.000000,1.000000,1,1,1,201007.244298,11870.643243,68956.942606,158.859316,-1392.201464,1434.467840,-1.015351,18.100601,5.293705
5.872764,643.603862,306.574182,51.222031,0.908566,1.261630,59980.305030,4822009011875.156250,301713.945954,3202056.860404,-5.402504,51432.899460,291.787155,0.066104582,-0.067714879,0.694987868,0.712766963,0.000699809,0.003075901,0.003673231,0.000000,0.000000,0.000000,1.000000,1,1,1,200170.678940,24548.924899,52211.617351,-2007.480590,11683.534581,-12361.276839,-2.254373,18.361432,3.664446
5.894273,644.707233,306.976915,51.318628,0.908161,1.251867,59922.764900,4822009011875.039062,302820.212585,3202063.138035,-5.437675,51433.291401,291.882960,0.066079021,-0.067687432,0.695015513,0.712744983,0.000040551,0.004048785,0.002713098,0.000000,0.000000,0.000000,1.000000,1,1,1,200432.521969,11737.036425,68161.439357,427.960183,-2364.240383,2229.585578,-1.005880,18.060910,5.204064
5.913847,645.713718,307.342603,51.421210,0.910849,1.240043,60274.217212,4822009011874.932617,303826.946371,3202068.853185,-5.457364,51433.644915,291.984821,0.066054357,-0.067661864,0.695039436,0.712726368,0.000310696,0.003646384,0.003062221,0.000000,0.000000,0.000000,1.000000,1,1,1,199495.938810,21721.384446,49725.038971,-1378.202324,12175.525278,-8788.165967,-1.980058,18.336458,3.409776
5.933987,646.750776,307.718468,51.508164,0.910374,1.230979,60207.479519,4822009011874.822266,304862.862367,3202074.735359,-5.487413,51434.011274,292.071031,0.066025778,-0.067633789,0.695062777,0.712708919,-0.000037610,0.004528365,0.002510057,0.000000,0.000000,0.000000,1.000000,1,1,1,199868.759787,11588.062184,67354.433069,484.641878,-3104.677074,2589.407267,-0.994484,18.022623,5.113209
5.953682,647.767201,308.085384,51.609596,0.913136,1.219023,60569.665005,4822009011874.713867,305875.841265,3202080.489562,-5.506999,51434.366223,292.171733,0.065998376,-0.067605787,0.695086034,0.712691432,0.000270216,0.003996665,0.002918037,0.000000,0.000000,0.000000,1.000000,1,1,1,198874.127808,21239.588044,47283.367733,-1286.186184,12840.310981,-8124.512914,-1.935389,18.321598,3.160211
5.973871,648.810526,308.461049,51.693312,0.912589,1.210201,60493.196818,4822009011874.602539,306914.272290,3202086.389667,-5.536549,51434.732929,292.254700,0.065967416,-0.067575331,0.695108973,0.712674814,-0.000035767,0.004884315,0.002443919,0.000000,0.000000,0.000000,1.000000,1,1,1,199299.026351,11430.302414,66542.685941,506.183095,-3744.719093,2843.849744,-0.982149,17.983947,5.021547
5.993095,649.806143,308.818176,51.790562,0.913656,1.198573,60630.937702,4822009011874.496094,307903.061065,3202092.009832,-5.555430,51435.078653,292.351234,0.065938998,-0.067546129,0.695131590,0.712658152,0.000278058,0.004258326,0.002881282,0.000000,0.000000,0.000000,1.000000,1,1,1,199020.617402,11387.484587,66052.287443,365.300555,-3280.030393,2483.228812,-0.979427,17.966855,4.967722
6.013021,650.840078,309.187824,51.890289,0.914761,1.187381,60773.789075,4822009011874.384766,308927.939069,3202097.837056,-5.574945,51435.436652,292.450218,0.065914878,-0.067518531,0.695157626,0.712637602,0.000512780,0.003690023,0.003277104,0.000000,0.000000,0.000000,1.000000,1,1,1,198732.453398,11362.704123,65589.012184,254.848293,-2865.112056,2119.560931,-0.978670,17.948270,4.916485
6.032561,651.855908,309.549802,51.987089,0.915844,1.177143,60913.913051,4822009011874.275391,309933.002151,3202103.553455,-5.594069,51435.787364,292.546287,0.065895431,-0.067493979,0.695185256,0.712614773,0.000673341,0.003203227,0.003608411,0.000000,0.000000,0.000000,1.000000,1,1,1,198450.123223,11354.454195,65173.249237,174.094975,-2517.033608,1780.063938,-0.979624,17.929291,4.870131
6.052130,652.875129,309.911805,52.083127,0.918343,1.167544,61242.925754,4822009011874.166016,310939.567736,3202109.280225,-5.613239,51436.138226,292.641592,0.065879449,-0.067471810,0.695214665,0.712589660,0.000783168,0.002774949,0.003887059,0.000000,0.000000,0.000000,1.000000,1,1,1,197718.314635,24172.684238,51314.701422,-2021.617922,8505.235791,-12237.075966,-2.233586,18.145501,3.520799
6.072343,653.929260,310.285480,52.168257,0.918043,1.160042,61198.906517,4822009011874.052734,311979.272246,3202115.196851,-5.645738,51436.502624,292.725962,0.065859833,-0.067449427,0.695242246,0.712566682,0.000160937,0.003327593,0.003015601,0.000000,0.000000,0.000000,1.000000,1,1,1,197877.872732,11264.006049,64535.228888,412.707455,-2879.973011,2356.793099,-0.974505,17.886734,4.796122
6.091602,654.935745,310.640699,52.261350,0.920536,1.150766,61527.908934,4822009011873.943359,312969.883284,3202120.836175,-5.664506,51436.847101,292.818329,0.065841453,-0.067429253,0.695267504,0.712545645,0.000417270,0.002845298,0.003378706,0.000000,0.000000,0.000000,1.000000,1,1,1,197102.327982,22772.442661,50074.633732,-1641.340226,8677.131866,-10326.055944,-2.099723,18.106359,3.387935
